time,seconds_elapsed,accelZ,accelY,accelX,time,seconds_elapsed,gyroZ,gyroY,gyroX
1743715034904338400,0.03033837890625,0.0248065244764089,-0.0060609074741601,0.0719447077482938,1743715034904338400,0.03033837890625,-0.0071740052662789,0.0016633826307952,-0.0203045830130577
1743715034914302500,0.040302490234375,0.0199959093242883,0.013442834419012,0.0880505508314818,1743715034914302500,0.040302490234375,-0.0056834323331713,0.0044574365019798,-0.0227552037686109
1743715034924265200,0.05026513671875,0.0586924274653196,0.0273749136596918,0.0397816830292344,1743715034924265200,0.05026513671875,-0.0047092479653656,0.0052651725709438,-0.0304211117327213
1743715034934229200,0.060229248046875,0.0969388637512922,0.0260848738491535,0.0384076912622898,1743715034934229200,0.060229248046875,0.0016481594648212,0.0081721032038331,-0.0375445634126663
1743715034944192300,0.070192138671875,0.1040080714851617,-0.0254968448281288,0.0009825082313269,1743715034944192300,0.070192138671875,0.0016159352380782,0.0032697562128305,-0.0423393175005912
1743715034954155300,0.0801552734375,0.0935334392219781,-0.0272580092817544,-0.0121332131251692,1743715034954155300,0.0801552734375,0.0041508227586746,0.0039037649985402,-0.0487689599394798
1743715034964119300,0.090119384765625,0.0790904878497123,0.0055628948241472,-0.0228648888893425,1743715034964119300,0.090119384765625,0.0032248415518552,0.0038289299700409,-0.0500342287123203
1743715034974082300,0.100082275390625,0.0245516729325056,0.0007984569013118,-0.0382054466884583,1743715034974082300,0.100082275390625,0.0025498520117253,0.0070691094733774,-0.0496214106678962
1743715034984046300,0.11004638671875,-0.0104658644348382,0.0148018478125333,-0.0066935062892735,1743715034984046300,0.11004638671875,0.0048156697303056,0.0125078167766332,-0.0458796694874763
1743715034994009900,0.120009765625,-0.0337906259208917,0.0318143574118614,-0.02288344745934,1743715034994009900,0.120009765625,0.0014491929905489,0.0124354111030697,-0.0410207733511924
1743715035003973600,0.1299736328125,-0.0752443338155746,0.0600169540673494,-0.0127913117077201,1743715035003973600,0.1299736328125,0.0004124242113903,0.0071026966907083,-0.0348840504884719
1743715035013936600,0.1399365234375,-0.086730188947916,0.0572895749300718,0.0031266075879335,1743715035013936600,0.1399365234375,-0.0030010663904249,0.0046766283921897,-0.0343181118369102
1743715035023900000,0.14989990234375,-0.0392272640168666,0.0467260953396558,0.0030837182942777,1743715035023900000,0.14989990234375,-0.0045076166279613,0.0024885754100978,-0.0350776463747024
1743715035033863700,0.15986376953125,-0.0079962594509124,0.0419558121979236,0.0204893919296562,1743715035033863700,0.15986376953125,0.0008114273659884,0.0050471574068069,-0.0380273535847663
1743715035043827000,0.169826904296875,-0.0105488665431737,0.0314449395775794,0.0120763683713972,1743715035043827000,0.169826904296875,0.0078040896914899,0.0111979944631457,-0.0378430634737014
1743715035053790700,0.179790771484375,-0.0161082542359828,0.0519388615518808,-0.0206246356818825,1743715035053790700,0.179790771484375,0.0040939534083008,0.010597531683743,-0.0332293882966041
1743715035063753700,0.189753662109375,-0.0054752165406942,0.0564466943651437,-0.0266352012082934,1743715035063753700,0.189753662109375,0.0016614217311143,0.0028416076675057,-0.0334456339478492
1743715035073717800,0.1997177734375,-0.0040671033084392,0.0203957222968339,-0.0138940853178501,1743715035073717800,0.1997177734375,0.0019705803133547,-0.0020282468758523,-0.0344803184270858
1743715035083680800,0.2096806640625,0.0025105215162038,-0.0061743047207593,-0.0414338341504335,1743715035083680800,0.2096806640625,0.001944747637026,-0.0078624337911605,-0.0377895608544349
1743715035093644800,0.219644775390625,0.0089577979594469,0.0141892688721418,-0.089959891584143,1743715035093644800,0.219644775390625,-0.0025333855301141,-0.0086439559236168,-0.0402686782181263
1743715035103607600,0.229607666015625,0.0353805254608392,0.0337386034727096,-0.125639765317738,1743715035103607600,0.229607666015625,-0.0040010535158216,0.0014675334095954,-0.0448304079473018
1743715035113570800,0.23957080078125,0.046328620454669,0.0311211144506931,-0.0627392917033284,1743715035113570800,0.23957080078125,-0.0050379713065922,0.0116292862221598,-0.0419747121632099
1743715035123534600,0.24953466796875,0.0135141460895538,0.0149491473287343,-0.0068129679504781,1743715035123534600,0.24953466796875,-0.0083935540169477,0.0175939667969942,-0.0338422171771526
1743715035133497600,0.25949755859375,0.0298830970883369,0.0033972412228584,0.0508185522850602,1743715035133497600,0.25949755859375,-0.0122394803911447,0.0085913725197315,-0.0319103226065635
1743715035143461600,0.269461669921875,0.0362672451674938,-0.0122258598446846,0.0760624452654272,1743715035143461600,0.269461669921875,-0.0131449550390243,0.0013851248659193,-0.0403181873261928
1743715035153424600,0.279424560546875,0.0433130720257759,0.0202396549522876,0.0232763922996819,1743715035153424600,0.279424560546875,-0.0111802574247121,-0.0019897054880857,-0.0554561838507652
1743715035163388700,0.289388671875,0.0177811558842659,0.0637222383260726,0.0074914517339318,1743715035163388700,0.289388671875,-0.0029795859009027,0.003514249343425,-0.0629415288567543
1743715035173351700,0.2993515625,-0.0253138894766569,0.0797141727060079,0.0139976187575608,1743715035173351700,0.2993515625,0.0037197466008365,0.0056947828270494,-0.0576609820127487
1743715035183314700,0.309314697265625,-0.0709580347985029,0.0874292771279811,0.0337183644022792,1743715035183314700,0.309314697265625,0.0121526457369327,0.0007580813253298,-0.0427528731524944
1743715035193278700,0.31927880859375,-0.0843371563315391,0.075489833009243,0.0333382790435105,1743715035193278700,0.31927880859375,0.0129695637151598,-0.0021234380546957,-0.0257472079247236
1743715035203241700,0.32924169921875,-0.0632803397774696,0.0408569110453128,0.038005394071713,1743715035203241700,0.32924169921875,0.0124957878142595,-0.0031767182517796,-0.0208794809877872
1743715035213205800,0.339205810546875,-0.0070090019792318,0.0055751697838306,0.040240751908347,1743715035213205800,0.339205810546875,0.0105354879051446,-0.0057583251036703,-0.025863092392683
1743715035223168800,0.349168701171875,0.0322802213579416,-0.0272521640628576,0.0027366584222763,1743715035223168800,0.349168701171875,0.0039699962362647,-0.0085589056834578,-0.036794040352106
1743715035233132800,0.3591328125,0.0559235472738742,-0.0592103138595819,-0.0337570159122347,1743715035233132800,0.3591328125,-0.0022818064317107,-0.0120634976774454,-0.0511743314564228
1743715035243095600,0.369095458984375,0.0710620796948671,-0.058214288559556,-0.045964755578339,1743715035243095600,0.369095458984375,-0.0051247309893369,-0.0110602853819727,-0.059669017791748
1743715035253059800,0.379059814453125,0.0542787026762962,-0.03049275341928,-0.0774118140477687,1743715035253059800,0.379059814453125,-0.008308864198625,-0.0107768271118402,-0.0600940361618995
1743715035263022600,0.389022705078125,0.0296948810398578,-0.0273620541781187,-0.0614870996851474,1743715035263022600,0.389022705078125,-0.0041559305973351,-0.0070878160186111,-0.0506299659609794
1743715035272985600,0.398985595703125,-0.0221387665718793,0.0044955578535795,-0.0251279384505003,1743715035272985600,0.398985595703125,5.3905067034e-05,0.0026888730935752,-0.04085323959589
1743715035282949600,0.40894970703125,-0.0407639720648527,0.064946811684966,-0.0177070677347481,1743715035282949600,0.40894970703125,-0.0034715875517576,-0.0001047828627633,-0.031786773353815
1743715035292912600,0.41891259765625,-0.0810229172170162,0.0903530556201934,-0.0082850863296538,1743715035292912600,0.41891259765625,-0.0035335794091224,-0.004215876571834,-0.0266151782125234
1743715035302876700,0.428876708984375,-0.0732534522593021,0.0779676212996244,0.0250579419542104,1743715035302876700,0.428876708984375,-0.0041964403353631,-0.0051831370219588,-0.0232667867094278
1743715035312839700,0.438839599609375,-0.0889455269098281,0.0755704970300197,0.0597910363569855,1743715035312839700,0.438839599609375,-0.0051607429049909,-0.0063084354624152,-0.0275289267301559
1743715035322803700,0.4488037109375,-0.0614694909632205,0.0273936183601617,0.0400468367714434,1743715035322803700,0.4488037109375,-0.0052608777768909,-0.0048753884620964,-0.0311545543372631
1743715035332766700,0.4587666015625,-0.0119318453341722,0.0295166018635034,0.0086623221442103,1743715035332766700,0.4587666015625,-0.0046265129931271,-0.0071489294059574,-0.0332214348018169
1743715035342730800,0.468730712890625,0.0087853640019893,0.0100087683171033,0.0065736793018877,1743715035342730800,0.468730712890625,-0.0065471846610307,-0.0047209253534674,-0.0324611030519008
1743715035352693800,0.47869384765625,0.0176619134187698,-0.0220288764566183,0.0070917848918586,1743715035352693800,0.47869384765625,-0.0048804297111928,-0.0021786005236208,-0.0284221414476633
1743715035362656800,0.48865673828125,0.0179500827103853,-0.0166746559470891,-0.010396817786619,1743715035362656800,0.48865673828125,-0.0074959197081625,-0.0067120995372533,-0.0250817369669675
1743715035372620800,0.498620849609375,0.0309872589379549,-0.0101408702641725,-0.0173847769778221,1743715035372620800,0.498620849609375,-0.0081952940672636,-0.0114585421979427,-0.0296146869659423
1743715035382583800,0.508583740234375,0.0406143344610929,-0.0162947167187929,-0.0170688428964465,1743715035382583800,0.508583740234375,-0.0097532430663704,-0.0085415821522474,-0.0336163528263568
1743715035392547800,0.5185478515625,0.0158171623349189,-0.0165893157511949,0.0170291684731841,1743715035392547800,0.5185478515625,-0.0090990802273154,-0.0051468103192746,-0.0400167182087898
1743715035402510600,0.528510498046875,-0.0241729027479887,-0.0042839609295129,0.0528583144843578,1743715035402510600,0.528510498046875,-0.0047043319791555,0.0005528870387934,-0.0395898148417472
1743715035412474600,0.538474609375,-0.038387306061387,0.0232680628627538,0.0947531902752816,1743715035412474600,0.538474609375,-0.0003057088470086,0.0046815327368676,-0.0375591665506362
1743715035422437600,0.548437744140625,-0.0388742127954959,0.0351017085194587,0.0831000888172537,1743715035422437600,0.548437744140625,0.0048831938765943,0.0050229495391249,-0.0302634332329034
1743715035432401700,0.558401611328125,-0.0399099855840206,0.0189905316740274,0.0442936074957251,1743715035432401700,0.558401611328125,0.0015854294179007,0.0036726167891174,-0.027617335319519
1743715035442364700,0.56836474609375,-0.0279670343339443,-0.0146656542122364,0.0291061944317072,1743715035442364700,0.56836474609375,-0.0040852394886314,-0.004170392639935,-0.0234875716269016
1743715035452328700,0.57832861328125,-0.0175128603368997,-0.0508376223117113,0.0076418930552899,1743715035452328700,0.57832861328125,-0.0075841848738491,-0.0093375211581587,-0.0254798494279384
1743715035462291700,0.588291748046875,-0.0013251111239194,-0.0493406617522239,0.0058097091920673,1743715035462291700,0.588291748046875,-0.0104710515588521,-0.0140670295804739,-0.0250076688826084
1743715035472255700,0.598255859375,0.0093856679826974,-0.0209948572337627,0.0087094492215663,1743715035472255700,0.598255859375,-0.0093867350369691,-0.0087294299155473,-0.0272040087729692
1743715035482218800,0.60821875,-0.0126513917803764,-0.018774843096733,0.0174410372097045,1743715035482218800,0.60821875,-0.0079169357195496,-0.0056686592288315,-0.0256274174898862
1743715035492181800,0.618181640625,-0.0140133277833461,-0.0159235453188419,0.0354590705897659,1743715035492181800,0.618181640625,-0.0042668310925364,-0.0069400928914546,-0.0229927133768796
1743715035502145800,0.628145751953125,-0.0045545945644378,-0.0125736503690481,0.0329766061242669,1743715035502145800,0.628145751953125,0.0002903698477894,-0.0043158140033483,-0.0176384281367063
1743715035512108800,0.63810888671875,0.0145779759287834,0.0281213481128215,0.0395346494656056,1743715035512108800,0.63810888671875,0.0033848998136818,0.0056570484302937,-0.0174099523574113
1743715035522072800,0.64807275390625,0.0019599018961191,0.0155552965283393,0.031366467513889,1743715035522072800,0.64807275390625,0.0053292736411094,0.0053808786906301,-0.0200102627277374
1743715035532035800,0.658035888671875,0.0016395839005708,0.0119271691590547,0.0144151865825057,1743715035532035800,0.658035888671875,0.001269614091143,-0.0031038096640259,-0.0217426251620054
1743715035541999900,0.667999755859375,-0.0146294138550758,0.0063005614489316,0.041017435369268,1743715035541999900,0.667999755859375,-0.0037230139132589,-0.0170917958021163,-0.024488877505064
1743715035551963000,0.677962890625,-0.0383902286708354,0.0206289465308189,0.0581486759774386,1743715035551963000,0.677962890625,-0.0047291917726397,-0.0249576959758996,-0.0236071478575468
1743715035561927000,0.687927001953125,-0.0425707292258739,0.0391992069661617,0.0616935089774429,1743715035561927000,0.687927001953125,-0.0020662969909608,-0.0206140801310539,-0.0212007146328687
1743715035571889700,0.6978896484375,-0.0586363133639097,0.0500689760267734,0.0518298482194542,1743715035571889700,0.6978896484375,0.0010673339711502,-0.0090569900348782,-0.0189343132078647
1743715035581854000,0.70785400390625,-0.0708341161578893,0.0515998388558626,0.0521644139360636,1743715035581854000,0.70785400390625,0.0115143815055489,-0.0102175958454608,-0.0110484259203076
1743715035591816700,0.717816650390625,-0.031550153517723,0.0414636447668075,0.0676892422609031,1743715035591816700,0.717816650390625,0.0029949829913675,-0.0115592367947101,-0.0086598731577396
1743715035601779700,0.72777978515625,-0.0407213019669055,-0.0055360068172216,-0.0761309804569929,1743715035601779700,0.72777978515625,-0.0053058234043419,-0.0071431826800107,-0.0054995007812976
1743715035611743700,0.73774365234375,-0.0060743514776229,0.0498474422305822,-0.0517141128852963,1743715035611743700,0.73774365234375,-0.0031423312611877,-0.0041791116818785,-0.0010797230061143
1743715035621706800,0.747706787109375,-0.0478700046777725,0.02528933955729,0.0517111902758479,1743715035621706800,0.747706787109375,0.0028599011711776,-0.0021559079177677,0.008527098223567
1743715035631670800,0.7576708984375,-0.0645680415004491,0.0122942489057779,0.0516181051649153,1743715035631670800,0.7576708984375,0.0029677916318178,-0.0068975333124399,0.0102147664874792
1743715035641633800,0.7676337890625,0.0251221662968397,0.0214256498664617,0.0157882285013794,1743715035641633800,0.7676337890625,0.0011768160620704,-0.0070951399393379,0.0054668830707669
1743715035651597800,0.777597900390625,0.0411105935454368,0.0478618213713169,0.026978169427067,1743715035651597800,0.777597900390625,0.001790641923435,-0.0100140972062945,0.0001999260857701
1743715035661560800,0.787560791015625,-0.0093348145782947,0.0487128852427005,0.0588149578664451,1743715035661560800,0.787560791015625,0.0015008900081738,-0.0133489081636071,0.0012880936264991
1743715035671524900,0.79752490234375,-0.081232176053524,0.0486976876735687,0.0753694214999675,1743715035671524900,0.79752490234375,0.0026301001198589,-0.0142490426078438,0.0088440161198377
1743715035681488000,0.80748779296875,-0.1001812066733837,0.0427712202340364,0.0653960898224264,1743715035681488000,0.80748779296875,0.0078949034214019,-0.0153811518102884,0.0178164727985858
1743715035691452000,0.817451904296875,-0.0792196671873331,-0.0107294838070869,0.0542957268763333,1743715035691452000,0.817451904296875,0.0081587620079517,-0.0150216529145836,0.0195611044764518
1743715035701415000,0.827414794921875,-0.0421814376473426,-0.0251508078694343,0.0208221310153603,1743715035701415000,0.827414794921875,0.0097508002072572,-0.0127739449962973,0.012502396479249
1743715035711378000,0.8373779296875,-0.0390928239822387,0.0230003518372774,0.0196245917938649,1743715035711378000,0.8373779296875,0.0139074325561523,-0.009733960032463,0.0086088525131344
1743715035721342000,0.847342041015625,-0.1102443355262279,0.0595832388252019,0.0527050966840237,1743715035721342000,0.847342041015625,0.0125132668763399,-0.0111576858907938,0.0232892632484436
1743715035731304700,0.8573046875,-0.1224281097948551,0.0775052644848823,0.0756788527753204,1743715035731304700,0.8573046875,0.0061720148660242,-0.019151696935296,0.0430898629128932
1743715035741268700,0.867268798828125,-0.1021527990072965,0.0601227525293827,0.1586218513347208,1743715035741268700,0.867268798828125,0.0089001562446355,-0.0180153269320726,0.0529528819024562
1743715035751231700,0.877231689453125,-0.0228285024017095,0.0265618437111377,0.2027003547750413,1743715035751231700,0.877231689453125,0.0173765588551759,-0.0217901952564716,0.0481211356818676
1743715035761195800,0.88719580078125,0.0666202978551387,0.0101619130522012,0.1700576567802578,1743715035761195800,0.88719580078125,0.0212003253400325,-0.0244778580963611,0.0343635119497776
1743715035771158800,0.89715869140625,0.0950245545625686,0.0413870723992586,0.1203324526898562,1743715035771158800,0.89715869140625,0.0209794305264949,-0.0258225407451391,0.0184098351746797
1743715035781122600,0.90712255859375,0.0876823751062154,0.054340661996603,0.1427937292143702,1743715035781122600,0.90712255859375,0.0302885081619024,-0.0187015160918235,0.0053512919694185
1743715035791085800,0.9170859375,0.0885042128831148,0.0341641354084014,0.2556678287222981,1743715035791085800,0.9170859375,0.0408129654824733,-0.0163851361721754,-0.0018022316507995
1743715035801049600,0.927049560546875,0.0687871205002069,0.0304682034999132,0.2894941104784608,1743715035801049600,0.927049560546875,0.0445975847542285,-0.0272945091128349,-0.0027593714185059
1743715035811012900,0.937012939453125,0.103282095298171,0.0130558809280395,0.3219976191982627,1743715035811012900,0.937012939453125,0.0457877777516841,-0.0306059941649436,-0.0023985314182937
1743715035820975900,0.946975830078125,0.0696563045501709,-0.0282587107568979,0.3571112373512238,1743715035820975900,0.946975830078125,0.0476631745696067,-0.036818616092205,-0.0064289597794413
1743715035830939600,0.956939697265625,0.076370122975111,-0.0710644177824258,0.3631955257009714,1743715035830939600,0.956939697265625,0.047461811453104,-0.0487980619072914,-0.0141667770221829
1743715035840903000,0.96690283203125,0.0452256276488304,-0.1204378127604722,0.3465735497891902,1743715035840903000,0.96690283203125,0.0434934347867965,-0.0464480891823768,-0.0232119355350732
1743715035850866700,0.97686669921875,-0.0556546672046184,-0.0885199949741363,0.333895196936652,1743715035850866700,0.97686669921875,0.0490268617868423,-0.0374308079481124,-0.0189876165241003
1743715035860830000,0.986829833984375,-0.2019610807150602,-0.0202770643532276,0.387436671379581,1743715035860830000,0.986829833984375,0.0566264577209949,-0.044985394924879,0.0082954028621315
1743715035870793700,0.996793701171875,-0.286269010952115,-0.0570966827064752,0.4214011194974184,1743715035870793700,0.996793701171875,0.063025563955307,-0.0520008169114589,0.0341193005442619
1743715035880756700,1.0067568359375,-0.1752215423494577,-0.0571972204715013,0.4427251356203108,1743715035880756700,1.0067568359375,0.068817138671875,-0.0423154309391975,0.0341680385172367
1743715035890720800,1.016720703125,-0.0891302358269691,-0.0570510899990797,0.4970066878408193,1743715035890720800,1.016720703125,0.0887255147099495,-0.011231055483222,0.010737806558609
1743715035900683500,1.02668359375,-0.0356125806510448,-0.0699649321079254,0.5490503249414265,1743715035900683500,1.02668359375,0.1164098680019378,0.0155733944848179,-0.0071450537070631
1743715035910647600,1.0366474609375,-0.0371942968845367,-0.0288543385624885,0.5509315355781466,1743715035910647600,1.0366474609375,0.1406278610229492,0.0135272881016135,-0.001028039259836
1743715035920610600,1.046610595703125,-0.1120697973877191,0.0406494057744741,0.6101569739416242,1743715035920610600,1.046610595703125,0.1546427458524704,-0.0057566612958908,0.0163464229553937
1743715035930573800,1.05657373046875,-0.1651397087961435,0.0523930350601673,0.650095454967767,1743715035930573800,1.05657373046875,0.1619973331689834,-0.0236481949687004,0.0236424412578344
1743715035940537600,1.06653759765625,-0.0782031836211681,0.0538420648247003,0.7104537698186933,1743715035940537600,1.06653759765625,0.1683183461427688,-0.0425241477787494,0.0140201728790998
1743715035950500600,1.07650048828125,0.0253700035780668,-0.0043365678995847,0.7486713453363627,1743715035950500600,1.07650048828125,0.1644113361835479,-0.0481257587671279,-0.0165297780185937
1743715035960464600,1.086464599609375,0.1456651929974556,-0.0275350726574659,0.7446111832253635,1743715035960464600,1.086464599609375,0.1605377793312072,-0.0471118912100791,-0.0521905720233917
1743715035970427600,1.096427734375,0.2141466085493564,-0.0315443082988262,0.8144839070051908,1743715035970427600,1.096427734375,0.171383798122406,-0.0364983826875686,-0.0765425115823745
1743715035980391700,1.1063916015625,0.112976390838623,-0.0066015902221202,0.8585854259949177,1743715035980391700,1.1063916015625,0.1839640289545059,-0.0247045718133449,-0.0677916333079338
1743715035990354700,1.116354736328125,-0.0607937836587429,0.0933481457829475,0.8657422389470041,1743715035990354700,1.116354736328125,0.2050842046737671,-0.0064166584052145,-0.0231586527079343
1743715036000319000,1.126319091796875,-0.2621393628239631,0.2370014144361019,0.9111585668623446,1743715036000319000,1.126319091796875,0.2289360016584396,0.007731650955975,0.0496223419904708
1743715036010282000,1.136281982421875,-0.3679167820692062,0.2974631896615028,0.9513663663491606,1743715036010282000,1.136281982421875,0.2453151196241378,0.0200368706136941,0.1159768402576446
1743715036020246000,1.14624609375,-0.2416542086780071,0.3030366058796644,0.9463801023691892,1743715036020246000,1.14624609375,0.2486347556114196,0.0308402497321367,0.1343979239463806
1743715036030209000,1.156208984375,-0.0663151774287223,0.2574731245785951,0.9646579557292164,1743715036030209000,1.156208984375,0.2502207159996032,0.0398907326161861,0.1274204850196838
1743715036040172000,1.166172119140625,0.1312245797127485,0.1773790126442909,0.9602853666681797,1743715036040172000,1.166172119140625,0.244769737124443,0.0520272888243198,0.0967906713485717
1743715036050136000,1.176135986328125,0.2573679106384515,0.0465577530354261,0.888895954715088,1743715036050136000,1.176135986328125,0.2444661408662796,0.0632950067520141,0.0723420307040214
1743715036060098800,1.186098876953125,0.2838075892746448,0.0723626408994197,0.977703826719895,1743715036060098800,1.186098876953125,0.2650915384292602,0.092194028198719,0.0618808642029762
1743715036070063000,1.19606298828125,0.1792354541659355,0.1198965454906225,1.0181889087781308,1743715036070063000,1.19606298828125,0.2846966385841369,0.1222282126545906,0.0727090388536453
1743715036080025900,1.20602587890625,0.0906663593530654,0.1508814663410186,1.0007726406835018,1743715036080025900,1.20602587890625,0.2996367216110229,0.1278765052556991,0.1039122343063354
1743715036089990000,1.215989990234375,-0.0130804308474063,0.0807663121074438,0.942617973356694,1743715036089990000,1.215989990234375,0.2886227369308471,0.0952261835336685,0.1527857631444931
1743715036099953000,1.225952880859375,0.1066945340901613,0.0806114138066768,0.9048059829652308,1743715036099953000,1.225952880859375,0.2864176332950592,0.0572705492377281,0.1638890206813812
1743715036109917000,1.2359169921875,0.3701467330783605,0.1784124473452568,0.861013602989912,1743715036109917000,1.2359169921875,0.2866553664207458,0.067448578774929,0.1312703490257263
1743715036119880000,1.2458798828125,0.5498001203954219,0.1617126569569111,0.8526329473312944,1743715036119880000,1.2458798828125,0.2967133522033691,0.1240213066339492,0.0590592660009861
1743715036129844000,1.255843994140625,0.7269763039439916,0.1294657533466816,0.8049808962531387,1743715036129844000,1.255843994140625,0.3172160685062408,0.1928395926952362,-0.0283121559768915
1743715036139807000,1.265806884765625,0.7104507010787725,-0.0047708676636219,0.7046660532627255,1743715036139807000,1.265806884765625,0.3233426809310913,0.2441352754831314,-0.0740543454885482
1743715036149770000,1.27577001953125,0.5135726227164268,-0.1738151826828718,0.6019557299705222,1743715036149770000,1.27577001953125,0.3310444355010986,0.2451943457126617,-0.0755195766687393
1743715036159734000,1.285734130859375,0.4154220450878143,-0.2237900506854057,0.6224667126774788,1743715036159734000,1.285734130859375,0.3414795100688934,0.2444585114717483,-0.0548571795225143
1743715036169697000,1.295697021484375,0.2234901909559965,-0.2116062764167785,0.5852128676254302,1743715036169697000,1.295697021484375,0.3529238998889923,0.2589986026287079,-0.0266937185078859
1743715036179661000,1.3056611328125,-0.0154699563324451,-0.0951280149370431,0.5370359889555723,1743715036179661000,1.3056611328125,0.3569577932357788,0.2710501849651336,0.013825743459165
1743715036189624000,1.3156240234375,-0.2857809351742267,0.01074234328866,0.4527709480121731,1743715036189624000,1.3156240234375,0.3558881282806396,0.2664687931537628,0.0765826106071472
1743715036199588000,1.325588134765625,-0.5697627119719981,0.158374452444911,0.3946925607919693,1743715036199588000,1.325588134765625,0.3553214073181152,0.2598963677883148,0.1727360337972641
1743715036209551000,1.335551025390625,-1.013847372442484,0.3798895439356565,0.389040599444881,1743715036209551000,1.335551025390625,0.3655846416950226,0.2675973773002624,0.3341031074523926
1743715036219515100,1.34551513671875,-1.4888228457391262,0.709368166539073,0.4318384519575163,1743715036219515100,1.34551513671875,0.397721529006958,0.2843747437000274,0.5483791828155518
1743715036229478000,1.355477783203125,-2.0107371803432703,0.9664829791992904,0.3611860125094652,1743715036229478000,1.355477783203125,0.4222382307052612,0.3317553102970123,0.918234407901764
1743715036239441000,1.36544091796875,-3.091744948866963,1.029649337208271,0.1835107568649575,1743715036239441000,1.36544091796875,0.5181061625480652,0.3165028691291809,1.402247190475464
1743715036249405000,1.375405029296875,-3.0133085410118103,1.493237739571929,0.6006765403475612,1743715036249405000,1.375405029296875,0.7098789215087891,0.3957722187042236,1.8957953453063965
1743715036259368000,1.385367919921875,-3.2105577907741067,1.799209814381599,0.5954834286838769,1743715036259368000,1.385367919921875,0.8888683319091797,0.6022704839706421,2.3462204933166504
1743715036269332000,1.39533203125,-3.2225673775196078,1.9990572639435529,0.2673211859086528,1743715036269332000,1.39533203125,0.9479618668556212,0.4691242277622223,2.759425163269043
1743715036279295000,1.405294921875,-3.866655554896593,2.16605458330512,-0.0253297446329146,1743715036279295000,1.405294921875,0.9228296279907228,0.5054867267608643,3.1716275215148926
1743715036289259000,1.415259033203125,-3.597874854362011,2.292068150371313,0.013322916100081,1743715036289259000,1.415259033203125,0.9036569595336914,0.3893802165985107,3.479231834411621
1743715036299222000,1.425221923828125,-2.856589454558492,2.433278702047467,0.0644496758177876,1743715036299222000,1.425221923828125,0.8821524977684021,0.3176543712615967,3.724245071411133
1743715036309186000,1.43518603515625,-2.774306892669201,2.340533782854676,0.3011991430531255,1743715036309186000,1.43518603515625,0.8224680423736572,0.2689782679080963,3.905429601669312
1743715036319149000,1.445149169921875,-2.500132224136591,2.299650568324328,-0.2325782642316073,1743715036319149000,1.445149169921875,0.7233006954193115,0.1202212944626808,4.035080432891846
1743715036329113000,1.455113037109375,-1.9895283880978825,2.225155007049441,-0.2652477771680802,1743715036329113000,1.455113037109375,0.6103349924087524,-0.0611812658607959,4.116669178009033
1743715036339076000,1.465076171875,-1.5305232218712568,2.1342057391017675,-0.2297237150507047,1743715036339076000,1.465076171875,0.530269205570221,-0.2716519236564636,4.1637043952941895
1743715036349039000,1.4750390625,-1.221325170752406,1.90620362367928,-0.1211389102345332,1743715036349039000,1.4750390625,0.4866667687892914,-0.4913437664508819,4.157049655914307
1743715036359003100,1.485003173828125,-0.7718354363679886,1.6696481994450092,-0.1250545036425348,1743715036359003100,1.485003173828125,0.4492610692977905,-0.6503283381462097,4.111175060272217
1743715036368966100,1.494966064453125,-0.5704997940748929,1.2922235843181609,-0.3063641976661048,1743715036368966100,1.494966064453125,0.44354909658432,-0.8164879083633423,4.112485885620117
1743715036378930200,1.50493017578125,-0.7619125927686691,0.4802075287312269,-0.282326429072488,1743715036378930200,1.50493017578125,0.5000664591789246,-1.030467510223389,4.321570873260498
1743715036388893000,1.514892822265625,-1.0873097912773488,-0.4284966307163238,-0.1227790055917575,1743715036388893000,1.514892822265625,0.597331166267395,-1.223406434059143,4.729944229125977
1743715036398857200,1.524857177734375,-1.5064225075766444,-0.7321791332840919,0.0894090893009677,1743715036398857200,1.524857177734375,0.7257387042045593,-1.226795315742493,5.206146717071533
1743715036408820000,1.534820068359375,-1.688697767829895,-0.1576724416553974,0.5534846175944432,1743715036408820000,1.534820068359375,0.8557640910148621,-1.041057586669922,5.569746017456055
1743715036418784000,1.544783935546875,-1.5550607201479374,1.011899745506048,0.7205032354723662,1743715036418784000,1.544783935546875,0.9591120481491088,-0.8098548054695129,5.793460845947266
1743715036428747000,1.5547470703125,-1.3767150544285771,1.8586790714383123,0.3567950110089034,1743715036428747000,1.5547470703125,0.9398710131645204,-0.7879093289375305,5.89403247833252
1743715036438710000,1.5647099609375,-0.068467971548438,1.8778350228071208,-0.8537867204762994,1743715036438710000,1.5647099609375,0.6307477951049805,-0.919060468673706,5.74011754989624
1743715036448674000,1.574674072265625,2.346897472667694,2.16991593490839,-1.6229530837655066,1743715036448674000,1.574674072265625,0.3457684516906738,-1.4941359758377075,5.299816608428955
1743715036458637000,1.584636962890625,6.210076291364431,2.322123681417108,-2.2898460904076696,1743715036458637000,1.584636962890625,0.0311934556812047,-1.499327301979065,4.736217021942139
1743715036468601000,1.59460107421875,13.644638263338804,2.7609669341027736,-2.81228941732198,1743715036468601000,1.59460107421875,0.0419410280883312,1.3333834409713743,3.5788726806640625
1743715036478564000,1.604564208984375,25.429276435768603,3.4116713147491216,-1.5805854758962987,1743715036478564000,1.604564208984375,0.2380785793066024,2.6308703422546387,1.479409098625183
1743715036488528100,1.614528076171875,21.272215208506584,2.1075790134608745,-0.1786192219637334,1743715036488528100,1.614528076171875,0.2268001288175583,1.6224675178527832,-0.0033990445081144
1743715036498491100,1.6244912109375,12.235739433664085,0.5391933861851692,-0.6596670009113847,1743715036498491100,1.6244912109375,-0.0923115611076355,0.3662965893745422,-0.7256999611854553
1743715036508455000,1.634454833984375,2.357472496565431,1.420128664219379,0.8672455561820417,1743715036508455000,1.634454833984375,-0.0074021145701408,0.2316223233938217,-0.7591610550880432
1743715036518418200,1.644418212890625,-3.50744230376482,2.641635036757588,2.438368426401913,1743715036518418200,1.644418212890625,0.2111619263887405,0.2928159236907959,-0.3254471123218536
1743715036528381200,1.654381103515625,-3.534982637119293,1.7406202627688645,1.2786267283812165,1743715036528381200,1.654381103515625,0.3396679759025574,0.3265165090560913,0.0741990432143211
1743715036538345200,1.66434521484375,-0.2037527133721858,0.7466472190976142,0.1963639182951301,1743715036538345200,1.66434521484375,0.3017445504665375,0.533592164516449,0.043292261660099
1743715036548308000,1.674307861328125,3.332857305753231,0.1407943720906972,-0.8170691011928022,1743715036548308000,1.674307861328125,0.2695102393627167,0.6472815871238708,-0.2481707036495208
1743715036558272000,1.68427197265625,4.203803104692697,-0.1075251396954059,-0.6459315402213484,1743715036558272000,1.68427197265625,0.2755971550941467,0.6072396636009216,-0.4503885209560394
1743715036568235000,1.694235107421875,2.6422318336069583,0.1074918219476938,0.0233131441134959,1743715036568235000,1.694235107421875,0.2590787708759308,0.5884171724319458,-0.4330963492393493
1743715036578198800,1.70419873046875,1.1444096888542177,0.4068208054810762,0.3828534352425485,1743715036578198800,1.70419873046875,0.2248174548149109,0.6094239354133606,-0.3334901332855224
1743715036588162000,1.714162109375,0.9974819285750388,0.4280623309522867,0.400386973041296,1743715036588162000,1.714162109375,0.1887363940477371,0.6494293808937073,-0.2623739242553711
1743715036598125800,1.724125732421875,1.661481259602308,0.3126069827795028,0.3756070443108678,1743715036598125800,1.724125732421875,0.1952747106552124,0.6211375594139099,-0.2839140892028808
1743715036608089000,1.734089111328125,2.309001749515533,0.3095996176570654,0.0974120342209935,1743715036608089000,1.734089111328125,0.1466676145792007,0.6465250849723816,-0.3182856142520904
1743715036618052000,1.744052001953125,2.173155355221033,0.431866399410367,-0.0805294346116483,1743715036618052000,1.744052001953125,0.0970920696854591,0.7010285258293152,-0.3284849822521209
1743715036628015900,1.754015869140625,1.9929121853172775,0.4605196624428033,-0.1507829744026065,1743715036628015900,1.754015869140625,0.0403776243329048,0.7284278273582458,-0.3121300339698791
1743715036637979100,1.763979248046875,1.5213351222872733,0.6920809316515922,0.1380642164744436,1743715036637979100,1.763979248046875,0.0405232980847358,1.0491045713424685,-0.250459760427475
1743715036647943000,1.77394287109375,1.6612895364224909,0.6283896729856729,-0.0270664322324097,1743715036647943000,1.77394287109375,-0.0446819849312305,0.7019755840301514,-0.2702608108520508
1743715036657906200,1.78390625,2.8287212044239043,0.1851736120432615,-1.0594099769607186,1743715036657906200,1.78390625,-0.1196363940834999,0.6568411588668823,-0.3496434986591339
1743715036667870000,1.793869873046875,1.8272271175980568,0.9111100515455008,-0.2300159394629299,1743715036667870000,1.793869873046875,-0.1449016779661178,0.8022404909133911,-0.3869514763355255
1743715036677833000,1.8038330078125,1.6656640982449054,0.9529746783286333,-0.12329554027915,1743715036677833000,1.8038330078125,-0.2102543115615844,0.7037354707717896,-0.3591645658016205
1743715036687797000,1.813796875,1.6699065581202506,1.008142438799143,-0.3335430955633521,1743715036687797000,1.813796875,-0.2120057344436645,0.7470919489860535,-0.3689354956150055
1743715036697760000,1.823760009765625,1.7781705334842204,1.1635293998658656,-0.3413270274378359,1743715036697760000,1.823760009765625,-0.260765016078949,0.7406364679336548,-0.3869869410991668
1743715036707724000,1.83372412109375,1.7319757685422896,1.2612351563364266,-0.5457762717068195,1743715036707724000,1.83372412109375,-0.3378045558929443,0.68707275390625,-0.3892016112804413
1743715036717686800,1.843686767578125,1.5221312411010264,1.2635492784976958,-0.6468042314026504,1743715036717686800,1.843686767578125,-0.3330659866333008,0.7726795673370361,-0.3897997438907623
1743715036727650000,1.853650146484375,1.3364040868282316,1.5351216555774212,-0.1965651399556547,1743715036727650000,1.853650146484375,-0.3716527223587036,0.699373722076416,-0.3911259770393371
1743715036737613800,1.86361376953125,1.7836755606412886,1.2198346399337052,-0.7988913472063839,1743715036737613800,1.86361376953125,-0.4236344397068023,0.6140175461769104,-0.4092650413513183
1743715036747576800,1.873576904296875,1.57453129042387,1.28332949924469,-0.702012543079257,1743715036747576800,1.873576904296875,-0.4440518915653229,0.611535906791687,-0.41627237200737
1743715036757540900,1.883540771484375,1.595796196770668,1.156824349269271,-0.4948964907538145,1743715036757540900,1.883540771484375,-0.4485464990139007,0.5741283893585205,-0.4261159300804138
1743715036767504000,1.89350390625,1.729851615995169,1.104986025482416,-0.46571292023696,1743715036767504000,1.89350390625,-0.427438735961914,0.5622755885124207,-0.4221645891666412
1743715036777468000,1.903468017578125,1.635058532100916,0.9933961205661296,-0.4789209229867905,1743715036777468000,1.903468017578125,-0.3983202576637268,0.5220568180084229,-0.4075600802898407
1743715036787431000,1.913430908203125,1.7068880890369411,0.7945002726405859,-0.6738098002932965,1743715036787431000,1.913430908203125,-0.3890164196491241,0.480097234249115,-0.3938176035881042
1743715036797395000,1.92339501953125,1.6710551436334848,0.6367185253918171,-0.9235429052043704,1743715036797395000,1.92339501953125,-0.3877207934856415,0.4446902573108673,-0.381807267665863
1743715036807358000,1.93335791015625,1.707138848927617,0.4434989695370197,-0.9403320543766022,1743715036807358000,1.93335791015625,-0.393732488155365,0.3883292376995086,-0.3665535449981689
1743715036817321000,1.943321044921875,1.784070112916827,0.1721943034827709,-1.0905712772913276,1743715036817321000,1.943321044921875,-0.4189395904541015,0.322624534368515,-0.3505463600158691
1743715036827285000,1.953284912109375,1.8405080394536253,-0.1782639787852764,-1.188695843695849,1743715036827285000,1.953284912109375,-0.4545796513557434,0.2623554170131683,-0.3134820461273193
1743715036837248000,1.963248046875,1.7973218086779117,-0.5988455985933542,-1.1120357978634536,1743715036837248000,1.963248046875,-0.48180091381073,0.2158139944076538,-0.2714139521121979
1743715036847212000,1.9732119140625,1.7753204047501083,-1.122162785732746,-1.0768675269138068,1743715036847212000,1.9732119140625,-0.5098181366920471,0.187548816204071,-0.2060581147670745
1743715036857175000,1.983175048828125,1.5978636506944894,-1.6612795995503664,-1.0332083448641,1743715036857175000,1.983175048828125,-0.5120373368263245,0.1537104249000549,-0.1370694637298584
1743715036867139000,1.99313916015625,1.6812784314841032,-2.12881001753807,-0.7787912468552589,1743715036867139000,1.99313916015625,-0.5015840530395508,0.1399290412664413,-0.0852390304207801
1743715036877101800,2.003101806640625,2.070024651092291,-2.6739398080348966,-0.818640076836571,1743715036877101800,2.003101806640625,-0.4986436367034912,0.1574486494064331,-0.0296756383031606
1743715036887065900,2.01306591796875,2.462462710955739,-3.232552180439233,-1.0124166820522398,1743715036887065900,2.01306591796875,-0.4995273351669311,0.2133619487285614,0.0408030524849891
1743715036897028900,2.02302880859375,2.4099095168977973,-3.7714246641069646,-0.868769550878927,1743715036897028900,2.02302880859375,-0.4683510363101959,0.2039996087551117,0.1145497113466262
1743715036906991900,2.032991943359375,2.033611859974265,-4.322601918074488,-0.6400367100290953,1743715036906991900,2.032991943359375,-0.460732638835907,0.1115729212760925,0.1832329332828521
1743715036916956000,2.042955810546875,1.0365262372404336,-5.081905205127597,-0.3128951520711183,1743715036916956000,2.042955810546875,-0.4762463271617889,-0.1147486343979835,0.2573535144329071
1743715036926919000,2.0529189453125,0.2537128952622413,-6.185538062435389,-0.152770403626468,1743715036926919000,2.0529189453125,-0.584735631942749,-0.3496910035610199,0.3085141479969024
1743715036936883000,2.062883056640625,0.095893190623261,-7.472861015230417,-0.3540403785385191,1743715036936883000,2.062883056640625,-0.5636234283447266,-0.4725263714790344,0.2651046216487884
1743715036946846000,2.072845947265625,0.108739209926594,-8.523281337788701,-0.7786119447655976,1743715036946846000,2.072845947265625,-0.4793583452701568,-0.4064224362373352,0.1352973282337188
1743715036956810000,2.08281005859375,-0.0132435124546289,-8.377879764163493,-1.5012347296752035,1743715036956810000,2.08281005859375,-0.4610600173473358,-0.2236273139715194,-0.0767416805028915
1743715036966773000,2.09277294921875,-0.596576521150209,-6.912059023827314,-2.2705613980926573,1743715036966773000,2.09277294921875,-0.4897179305553436,-0.1007540971040725,-0.2355584800243377
1743715036976737000,2.102737060546875,-1.326556646552682,-4.006694724705815,-1.9962717248782516,1743715036976737000,2.102737060546875,-0.4778879284858703,0.0113261053338646,-0.2926308214664459
1743715036986700000,2.112699951171875,-1.7164163803607224,-0.9560065933704376,-0.7098996430672705,1743715036986700000,2.112699951171875,-0.4496111869812011,0.1150686740875244,-0.3194379508495331
1743715036996663800,2.122663818359375,-1.689570459011197,1.5484616141438483,0.1041815100896172,1743715036996663800,2.122663818359375,-0.4234059453010559,0.1948204934597015,-0.3204033374786377
1743715037006626800,2.132626708984375,-1.830011195358634,3.4120196897953745,0.7339927585773169,1743715037006626800,2.132626708984375,-0.3871808350086212,0.2005380243062973,-0.2768766283988952
1743715037016589800,2.14258984375,-1.9923685799598687,4.778539513424039,0.913698679799214,1743715037016589800,2.14258984375,-0.3455396294593811,0.1878896206617355,-0.2035608887672424
1743715037026553900,2.152553955078125,-2.0993243953347207,5.513396926006674,0.8382046090062707,1743715037026553900,2.152553955078125,-0.3077397644519806,0.2003159373998642,-0.1094330549240112
1743715037036516900,2.162516845703125,-2.204025125259161,5.349509847620129,0.832125508288294,1743715037036516900,2.162516845703125,-0.3211501240730285,0.2009508311748504,-0.0440250150859355
1743715037046481000,2.17248095703125,-1.9737457125544544,4.505671251314878,1.002350557524711,1743715037046481000,2.17248095703125,-0.3641840815544128,0.2091217041015625,-0.0271954331547021
1743715037056444000,2.18244384765625,-1.6148855126440524,3.4072868160545826,1.4458024730496108,1743715037056444000,2.18244384765625,-0.3823361694812774,0.1985180675983429,-0.0170389357954263
1743715037066408000,2.192407958984375,-1.2921698083043098,2.388534135913849,1.8132870011813935,1743715037066408000,2.192407958984375,-0.4395401775836944,0.2224355041980743,0.012291494756937
1743715037076371000,2.202370849609375,-0.8856582149028778,1.5862743351876736,1.7958187106385826,1743715037076371000,2.202370849609375,-0.4359161555767059,0.2352037578821182,0.0470193810760974
1743715037086335000,2.2123349609375,-0.545027499166131,0.5414239217162132,1.5143845724970102,1743715037086335000,2.2123349609375,-0.3121106326580047,0.2186398953199386,0.099288210272789
1743715037096298000,2.222298095703125,-0.5178097488295287,-0.2421720950722694,0.8422282384991645,1743715037096298000,2.222298095703125,-0.2535258829593658,0.2561342716217041,0.1771395951509475
1743715037106260700,2.2322607421875,-0.5827764707913622,-0.6536164687007665,0.2103470701359212,1743715037106260700,2.2322607421875,-0.2514686286449432,0.2791189551353454,0.2383137494325637
1743715037116224800,2.242224853515625,-0.6438292341798544,-1.0949760881215334,-0.0056993076201528,1743715037116224800,2.242224853515625,-0.2643671035766601,0.2749977111816406,0.2625040411949157
1743715037126187800,2.252187744140625,-0.7752076162148267,-1.18914665620327,0.0032637510363012,1743715037126187800,2.252187744140625,-0.2481391131877899,0.2620962858200073,0.2480678409337997
1743715037136151800,2.26215185546875,-0.6464332791984081,-1.142998653012514,0.2003780493073165,1743715037136151800,2.26215185546875,-0.1994157880544662,0.2410594522953033,0.2204950600862503
1743715037146114800,2.27211474609375,-0.4102800060242414,-1.0335299780339002,0.3987039153251797,1743715037146114800,2.27211474609375,-0.127234473824501,0.2359443306922912,0.2088605165481567
1743715037156078800,2.282078857421875,-0.3738286729941144,-0.7102046173632145,0.7227263914145529,1743715037156078800,2.282078857421875,-0.055876936763525,0.2464510351419448,0.2189546972513198
1743715037166041900,2.292041748046875,-0.2864811741317622,-0.2718704832434654,0.9692863461822272,1743715037166041900,2.292041748046875,0.0127913169562816,0.250320702791214,0.2318124622106552
1743715037176006000,2.302005859375,-0.0488385391826741,0.1577256331473588,0.9492876603789628,1743715037176006000,2.302005859375,0.0350630655884742,0.2495260089635849,0.2516239881515503
1743715037185969000,2.311968994140625,0.1638830049996264,0.5285580104023218,0.7686842788606881,1743715037185969000,2.311968994140625,0.0344262905418872,0.2385566681623459,0.2898054122924804
1743715037195932000,2.321931884765625,0.270977918317914,0.9560942716538906,0.6881370163314044,1743715037195932000,2.321931884765625,0.0341501198709011,0.2486260831356048,0.3238754868507385
1743715037205896000,2.33189599609375,0.3248269974052906,1.253977732554078,0.5919126940576359,1743715037205896000,2.33189599609375,0.0316579341888427,0.2698245644569397,0.3494863212108612
1743715037215859000,2.34185888671875,0.4424538443982601,1.4193056573987006,0.4504544512307271,1743715037215859000,2.34185888671875,0.0257121641188859,0.2693076431751251,0.3623645603656769
1743715037225823000,2.351822998046875,0.5822241341382265,1.552511181795597,0.3818874762872233,1743715037225823000,2.351822998046875,0.0426813848316669,0.2908466458320617,0.3620780408382416
1743715037235786000,2.361785888671875,0.7031815868586302,1.587854882377386,0.4279841511495411,1743715037235786000,2.361785888671875,0.0739096105098724,0.3031105101108551,0.3600111603736877
1743715037245750000,2.37175,0.7969184396982193,1.622961851593852,0.5202033659677953,1743715037245750000,2.37175,0.1145988777279853,0.3074023425579071,0.3549724817276001
1743715037255713000,2.381713134765625,0.8836264168143272,1.6670891626119613,0.5763747505228967,1743715037255713000,2.381713134765625,0.1503994762897491,0.2855697572231293,0.3406553268432617
1743715037265677000,2.391677001953125,0.9332230991542338,1.844813627693057,0.5481187797123566,1743715037265677000,2.391677001953125,0.2069898098707199,0.2825636565685272,0.3238488435745239
1743715037275639800,2.401639892578125,0.9876409180402757,1.8576304391682148,0.4145231965519487,1743715037275639800,2.401639892578125,0.2563248872756958,0.294537752866745,0.2797271907329559
1743715037285602800,2.411602783203125,1.1996423312544822,1.9350415956288576,0.3300408230634406,1743715037285602800,2.411602783203125,0.2845469117164612,0.2939897775650024,0.2393718212842941
1743715037295566800,2.42156689453125,1.185312192606926,2.080384132543206,0.2582849158855155,1743715037295566800,2.42156689453125,0.2961257994174957,0.2788912355899811,0.2002284079790115
1743715037305529900,2.43152978515625,1.1519453450560568,2.1720032625764607,0.2855496106363833,1743715037305529900,2.43152978515625,0.3189363181591034,0.2577581107616424,0.1683943420648574
1743715037315494000,2.441493896484375,1.123365731781721,2.242839132300019,0.2922626984089613,1743715037315494000,2.441493896484375,0.3407870233058929,0.2251157462596893,0.1394993066787719
1743715037325457000,2.451456787109375,1.1136182447493077,2.283602519842982,0.2760138666585087,1743715037325457000,2.451456787109375,0.3737654983997345,0.185538500547409,0.1113568842411041
1743715037335421000,2.4614208984375,1.0916823072731494,2.310188328951597,0.5074146480759606,1743715037335421000,2.4614208984375,0.4158421158790588,0.1643631756305694,0.0869625955820083
1743715037345384000,2.471384033203125,1.0760521919429302,2.4109581491678957,0.4940723148893565,1743715037345384000,2.471384033203125,0.432331770658493,0.1122490763664245,0.0557796359062194
1743715037355348000,2.481347900390625,1.1190998910307883,2.5779671589672564,0.2742684842959046,1743715037355348000,2.481347900390625,0.4555180668830871,0.0832736194133758,0.0161794982850551
1743715037365311000,2.49131103515625,1.0794470950782298,2.6024241393536327,0.2631268212250434,1743715037365311000,2.49131103515625,0.4813089668750763,0.059741586446762,0.0038794055581092
1743715037375275000,2.50127490234375,0.8971510842978954,2.594056708502769,0.2863447796020656,1743715037375275000,2.50127490234375,0.5094771981239319,0.0451698340475559,0.0353337377309799
1743715037385238000,2.511238037109375,0.6917161899924278,2.5738228987693783,0.3253418881248682,1743715037385238000,2.511238037109375,0.5438417196273804,0.0241360571235418,0.096082329750061
1743715037395201000,2.521200927734375,0.6465349860072136,2.5550188295781613,0.2208873697801493,1743715037395201000,2.521200927734375,0.6018557548522949,0.0173063799738883,0.1075949072837829
1743715037405165000,2.5311650390625,0.6772106947779655,2.284623095062375,0.1024883328382857,1743715037405165000,2.5311650390625,0.6225087642669678,0.0012110122479498,0.0994922369718551
1743715037415128000,2.541128173828125,0.7901356476902961,1.8889368470579384,0.0575097113536205,1743715037415128000,2.541128173828125,0.6201337575912476,-0.04147919267416,0.068659484386444
1743715037425092000,2.551092041015625,1.0045803624033929,1.5187223094403743,0.0165326353942044,1743715037425092000,2.551092041015625,0.612156093120575,-0.070120483636856,0.0342833958566188
1743715037435054800,2.561054931640625,1.0384265179038048,1.0203887569099663,0.0466618161980994,1743715037435054800,2.561054931640625,0.6272732615470886,-0.1010453775525093,0.0360330939292907
1743715037445019000,2.571018798828125,1.2027262687444686,0.3747761464446782,0.214428220236022,1743715037445019000,2.571018798828125,0.6731646060943604,-0.1189254894852638,0.0402981080114841
1743715037454982000,2.58098193359375,1.4149685049772265,-0.4504302301049232,0.3029655499374494,1743715037454982000,2.58098193359375,0.7536671757698059,-0.1027545034885406,0.0269173216074705
1743715037464946000,2.59094580078125,1.78040925232172,-1.278991177779436,0.2642805761037394,1743715037464946000,2.59094580078125,0.8258399963378906,-0.1196826994419097,0.0215768720954656
1743715037474909000,2.600908935546875,2.157193231457472,-2.1646125678032635,-0.0984157679034397,1743715037474909000,2.600908935546875,0.8676612377166748,-0.1567874550819397,0.0550621263682842
1743715037484872000,2.610871826171875,2.167797627580166,-2.8760587096601724,-0.4168617225021123,1743715037484872000,2.610871826171875,0.887164831161499,-0.2066627740859985,0.1329010128974914
1743715037494836000,2.6208359375,2.25443663111329,-3.365912018615007,-0.5020024503014981,1743715037494836000,2.6208359375,0.8811296224594116,-0.2859455943107605,0.2249246835708618
1743715037504799000,2.630799072265625,2.550259652352333,-3.753094057646394,-0.4576719448614865,1743715037504799000,2.630799072265625,0.8753088712692261,-0.2985545694828033,0.3122718632221222
1743715037514762800,2.6407626953125,1.874260086929798,-4.109250843816995,-0.0382047160360962,1743715037514762800,2.6407626953125,0.9127052426338196,-0.164971724152565,0.3346756994724273
1743715037524726000,2.65072607421875,0.1606020653665065,-4.673776239657402,0.9720787533797324,1743715037524726000,2.65072607421875,1.0860635042190552,-0.0741138756275177,0.3283107876777649
1743715037534689800,2.660689697265625,0.0425450102627277,-5.924194818425178,1.142531766153127,1743715037534689800,2.660689697265625,1.3125286102294922,-0.0315480306744575,0.3003422617912292
1743715037544653000,2.670653076171875,1.2511328645169737,-7.951614253500104,-0.4692150831390172,1743715037544653000,2.670653076171875,1.4813834428787231,-0.0122614335268735,0.1554431766271591
1743715037554616800,2.680616943359375,0.7366869660973548,-8.816805434435606,-2.093402604070305,1743715037554616800,2.680616943359375,1.5224852561950684,-0.0609229765832424,-0.0577796176075935
1743715037564579800,2.690579833984375,-0.5198071697244421,-8.675681391999126,-3.6053842070788154,1743715037564579800,2.690579833984375,1.3773152828216553,-0.0952451899647712,-0.344935804605484
1743715037574542800,2.70054296875,-1.099400334304571,-8.116434813344478,-5.605959474369883,1743715037574542800,2.70054296875,1.064941644668579,-0.0734536051750183,-0.6316367983818054
1743715037584507000,2.7105068359375,-2.013836899924278,-5.9424681417405605,-6.420126570510864,1743715037584507000,2.7105068359375,0.7894954681396484,-0.032839335501194,-0.7134299874305725
1743715037594470000,2.720469970703125,-3.092137163054943,-2.3538076904475687,-4.97260954862833,1743715037594470000,2.720469970703125,0.5976347327232361,-0.0949833989143371,-0.5707449913024902
1743715037604433700,2.73043359375,-2.990301759433746,0.1840069063514471,-3.4131536622613665,1743715037604433700,2.73043359375,0.4307177066802978,-0.3054647743701935,-0.4095345139503479
1743715037614397000,2.74039697265625,-2.189843455171585,1.984364721724391,-2.309079929318279,1743715037614397000,2.74039697265625,0.2606751620769501,-0.5045022368431091,-0.3575530648231506
1743715037624360700,2.750360595703125,-1.4887059413611887,3.402843280649185,-1.2608256987527011,1743715037624360700,2.750360595703125,0.101121000945568,-0.6454950571060181,-0.3860209286212921
1743715037634323700,2.76032373046875,-0.9829320096969604,4.253381666854024,-0.456643843922764,1743715037634323700,2.76032373046875,-0.0520882532000541,-0.7553413510322571,-0.4260831177234649
1743715037644287700,2.770287841796875,-0.6683505119740962,4.780190787762403,0.3179346075430512,1743715037644287700,2.770287841796875,-0.1723423302173614,-0.8389664888381958,-0.4093771874904632
1743715037654250800,2.780250732421875,-0.7096025598168373,4.910982236754894,0.9077484661579132,1743715037654250800,2.780250732421875,-0.2415954321622848,-0.8866860270500183,-0.3460557162761688
1743715037664214000,2.790214111328125,-0.6406628791034221,4.792063596385717,1.4407362757012248,1743715037664214000,2.790214111328125,-0.300008088350296,-0.9306844472885132,-0.2848511636257171
1743715037674177800,2.800177734375,-0.539853895920515,4.311500678345561,1.6469002149336038,1743715037674177800,2.800177734375,-0.3793814480304718,-0.9692382216453552,-0.2538067102432251
1743715037684140800,2.810140869140625,-0.4357049546599388,3.515917286643386,1.5454104098796844,1743715037684140800,2.810140869140625,-0.4675846397876739,-0.9861820340156556,-0.2372114807367324
1743715037694104800,2.820104736328125,-0.501458991074562,2.6506746677815918,1.2144066235356032,1743715037694104800,2.820104736328125,-0.5183975100517273,-0.9635438323020936,-0.1969388872385025
1743715037704067800,2.83006787109375,-0.7771522474765777,2.0429192020237443,0.8239372333966195,1743715037704067800,2.83006787109375,-0.5112688541412354,-0.9247614741325378,-0.1454794108867645
1743715037714031900,2.840031982421875,-0.6178712015807628,1.3770014701545237,0.3404233565963804,1743715037714031900,2.840031982421875,-0.4935398995876312,-0.870416522026062,-0.1085893139243125
1743715037723995000,2.849994873046875,-0.3315454920053481,0.7357569917708635,-0.2264811894655227,1743715037723995000,2.849994873046875,-0.4805191159248352,-0.8159872889518738,-0.1169924214482307
1743715037733958000,2.8599580078125,-0.1716273172497749,0.3213730575591325,-0.4852281333722174,1743715037733958000,2.8599580078125,-0.4457888305187225,-0.7794247269630432,-0.1552881449460983
1743715037743921700,2.869921630859375,-0.0827577690524514,-0.0486129319995641,-0.5632106599800288,1743715037743921700,2.869921630859375,-0.4127025604248047,-0.773385763168335,-0.2154276520013809
1743715037753884700,2.879884765625,0.0952864203691482,-0.2136877588659524,-0.5964508124113083,1743715037753884700,2.879884765625,-0.3715415298938751,-0.7756111025810242,-0.27595916390419
1743715037763848700,2.8898486328125,0.2273334223806858,-0.1230757600486278,-0.6481728163421153,1743715037763848700,2.8898486328125,-0.3435188829898834,-0.7793420553207397,-0.3190259039402008
1743715037773811700,2.899811767578125,0.32637598041296,0.1116390047550201,-0.7263666476130485,1743715037773811700,2.899811767578125,-0.3309589028358459,-0.7805130481719971,-0.3258342742919922
1743715037783775700,2.909775634765625,0.4205529782354831,0.4022422455191612,-0.7136788693450391,1743715037783775700,2.909775634765625,-0.3354940712451935,-0.771711528301239,-0.3095163106918335
1743715037793738800,2.91973876953125,0.5912929912567139,0.6881465148121119,-0.6234165607482195,1743715037793738800,2.91973876953125,-0.3461669683456421,-0.7551570534706116,-0.2895372807979584
1743715037803702800,2.929702880859375,0.7579284915685653,0.9080272830992936,-0.4738730650126934,1743715037803702800,2.929702880859375,-0.3578754663467407,-0.7238268852233887,-0.2553675770759582
1743715037813665800,2.939665771484375,0.8370446983814239,1.0791314532577991,-0.3778367030590772,1743715037813665800,2.939665771484375,-0.37111696600914,-0.6930910348892212,-0.2118150442838668
1743715037823628800,2.94962890625,0.8171423125594854,1.2694225544452666,-0.3842931857220828,1743715037823628800,2.94962890625,-0.384120911359787,-0.6543174982070923,-0.1668528765439987
1743715037833592800,2.9595927734375,0.6434381890356541,1.425416833755374,-0.4418598240278661,1743715037833592800,2.9595927734375,-0.3886645436286926,-0.6127117276191711,-0.1228958070278167
1743715037843555800,2.969555908203125,0.4872258830606937,1.536992125624418,-0.5031868377804756,1743715037843555800,2.969555908203125,-0.3855387270450592,-0.5828021168708801,-0.0912795737385749
1743715037853520000,2.979519775390625,0.4202145400613546,1.5445365496546029,-0.588461567223072,1743715037853520000,2.979519775390625,-0.3754085898399353,-0.5717571377754211,-0.0706954672932624
1743715037863483000,2.98948291015625,0.4102478573203086,1.5544547170788048,-0.7067116606809198,1743715037863483000,2.98948291015625,-0.3513606488704681,-0.5695546865463257,-0.0699285268783569
1743715037873447000,2.999447021484375,0.4011626335889101,1.568876625663042,-0.7557344886556268,1743715037873447000,2.999447021484375,-0.3183292150497436,-0.5597580075263977,-0.0784604996442794
1743715037883410000,3.009409912109375,0.4879647187292575,1.6326082163393496,-0.942146629517898,1743715037883410000,3.009409912109375,-0.2983828783035278,-0.5578275322914124,-0.100160889327526
1743715037893374000,3.0193740234375,0.6211743347793817,1.6532909388840198,-1.1396082799218594,1743715037893374000,3.0193740234375,-0.2864303588867187,-0.5436246395111084,-0.1128439307212829
1743715037903336700,3.029336669921875,0.6489560756742954,1.6487264074474572,-1.2233773540418595,1743715037903336700,3.029336669921875,-0.265133261680603,-0.51340252161026,-0.1121920496225357
1743715037913299700,3.0392998046875,0.6225859551429748,1.6824749477922916,-1.201470058138296,1743715037913299700,3.0392998046875,-0.261399507522583,-0.4637588262557983,-0.0923805311322212
1743715037923263700,3.049263671875,0.6437059000611305,1.6413094091892242,-1.1473927232529968,1743715037923263700,3.049263671875,-0.2323450595140457,-0.4129512012004852,-0.0777475088834762
1743715037933226800,3.059226806640625,0.6720674866706132,1.5575029987335205,-1.114672210781649,1743715037933226800,3.059226806640625,-0.2358593642711639,-0.3513541519641876,-0.0589450635015964
1743715037943190800,3.069190673828125,0.5140028308272362,1.5229296980023384,-0.9506252656582742,1743715037943190800,3.069190673828125,-0.2419043779373169,-0.3015090227127075,-0.0415506586432457
1743715037953153800,3.07915380859375,0.3089963910669088,1.5425871691524982,-0.8040392314888537,1743715037953153800,3.07915380859375,-0.2610951364040375,-0.2622167468070984,-0.0246760733425617
1743715037963117800,3.089117919921875,0.0401975794869009,1.50791333065629,-0.7904542121201753,1743715037963117800,3.089117919921875,-0.2845949232578277,-0.2184521406888961,0.0095868427306413
1743715037973080800,3.099080810546875,-0.1535544849425554,1.3870154991686343,-0.9173989225566388,1743715037973080800,3.099080810546875,-0.3023187816143036,-0.1640815734863281,0.0704328864812851
1743715037983043800,3.1090439453125,-0.1347398943573236,1.140548337250948,-1.190142096981406,1743715037983043800,3.1090439453125,-0.329190731048584,-0.1286756992340088,0.1243954375386238
1743715037993007900,3.1190078125,0.0934025063186883,0.8443588207870721,-1.3457180047489703,1743715037993007900,3.1190078125,-0.3570556640625,-0.1116141527891159,0.1630307286977768
1743715038002970000,3.12897021484375,0.3836591256022453,0.4180038782745599,-1.2847776522263883,1743715038002970000,3.12897021484375,-0.3699091970920563,-0.1036845073103904,0.2072248309850692
1743715038012934100,3.13893408203125,0.5684662424206733,-0.1121907934188842,-1.1314183975949883,1743715038012934100,3.13893408203125,-0.3607463240623474,-0.0740890651941299,0.2519073486328125
1743715038022897200,3.148897216796875,0.7499252178549766,-0.7303285369813441,-1.044521035386622,1743715038022897200,3.148897216796875,-0.3501053154468536,-0.0267441570758819,0.2671645879745483
1743715038032861200,3.158861083984375,1.1348761368334292,-1.3944172998577355,-1.0561705566480757,1743715038032861200,3.158861083984375,-0.3693785965442657,-0.0094423983246088,0.2774933874607086
1743715038042824200,3.16882421875,1.284651687759161,-1.9866186381310225,-1.0388028038702906,1743715038042824200,3.16882421875,-0.4001905024051666,-0.0042463815771043,0.31918865442276
1743715038052787000,3.178786865234375,1.121989767253399,-2.380690436676145,-0.8477820001687854,1743715038052787000,3.178786865234375,-0.4282764792442322,0.0217830892652273,0.4016233384609222
1743715038062751000,3.1887509765625,1.041143375647068,-2.621829097047448,-0.6182137314081192,1743715038062751000,3.1887509765625,-0.4629750251770019,0.035206414759159,0.5180882215499878
1743715038072714000,3.1987138671875,0.6858417450010776,-2.8552245959460736,-0.3010090090421959,1743715038072714000,3.1987138671875,-0.481500506401062,0.0660378336906433,0.5952460765838623
1743715038082678000,3.208677978515625,-0.3394634620556607,-3.2236095800489184,0.2179769074272364,1743715038082678000,3.208677978515625,-0.4929589629173279,-0.0482337698340415,0.6338008642196655
1743715038092641000,3.21864111328125,-0.8866659306406974,-4.337450527638197,0.2265462357920594,1743715038092641000,3.21864111328125,-0.4862911999225616,-0.2125968933105468,0.6751176714897156
1743715038102605000,3.22860498046875,-1.0867606329619883,-5.884688737466931,0.1161986225544474,1743715038102605000,3.22860498046875,-0.3891796767711639,-0.4466324746608734,0.7187565565109253
1743715038112568000,3.238568115234375,-1.1957213584184645,-6.919940132465959,0.1205927475938573,1743715038112568000,3.238568115234375,-0.2185144573450088,-0.5447065830230713,0.66310715675354
1743715038122531000,3.248531005859375,-0.6063257252156734,-8.070450476282835,-0.5899621079791337,1743715038122531000,3.248531005859375,-0.1426009088754654,-0.4981417059898376,0.4039421677589416
1743715038132495000,3.2584951171875,-0.0058265141963958,-8.96543941411078,-1.566097808599472,1743715038132495000,3.2584951171875,-0.2006948292255401,-0.3625884056091308,-0.0148268565535545
1743715038142458000,3.2684580078125,-0.4406535535106435,-8.713990372127293,-1.18509942663908,1743715038142458000,3.2684580078125,-0.239923283457756,-0.1987007111310959,-0.3587296605110168
1743715038152422100,3.278422119140625,-2.4263889425337317,-5.425591216781736,0.7599287254750728,1743715038152422100,3.278422119140625,-0.1921554952859878,0.002721098717302,-0.3151829838752746
1743715038162385200,3.28838525390625,-4.026327061414718,-1.4428402622431515,1.991450296071172,1743715038162385200,3.28838525390625,-0.1816013604402542,0.0697885602712631,-0.1086447015404701
1743715038172349200,3.29834912109375,-3.290812646228075,1.0165928717583417,2.5004034422934054,1743715038172349200,3.29834912109375,-0.1527135223150253,0.1202557235956192,0.0461675152182579
1743715038182312200,3.308312255859375,-2.358113278687,2.794645916342735,2.852151764371991,1743715038182312200,3.308312255859375,-0.0802454054355621,0.1925752162933349,0.1578011065721511
1743715038192275000,3.31827490234375,-1.54071903719306,3.76852426649034,2.7994416261866686,1743715038192275000,3.31827490234375,-0.0016901480266824,0.2606264352798462,0.2062101811170578
1743715038202239200,3.3282392578125,-0.5113129341561347,3.976457991874218,2.1926944606885312,1743715038202239200,3.3282392578125,0.0241837278008461,0.2839766442775726,0.1733203828334808
1743715038212202000,3.338201904296875,0.1976912213761359,3.781030696842074,1.5370865259096025,1743715038212202000,3.338201904296875,0.0338826924562454,0.2801683247089386,0.1158477738499641
1743715038222166000,3.348166015625,0.2597674460608512,3.4300586198329923,1.1520343385137617,1743715038222166000,3.348166015625,0.0397110283374786,0.2644720077514648,0.0740710496902465
1743715038232129000,3.35812890625,0.1258112859597429,2.845070281678438,0.8426318508639932,1743715038232129000,3.35812890625,0.0363381318747997,0.2551150023937225,0.0468591377139091
1743715038242093000,3.368093017578125,0.0171790618052706,2.288024427938461,0.5050992472730577,1743715038242093000,3.368093017578125,0.0242105945944786,0.2839905023574829,0.0340274721384048
1743715038252056000,3.37805615234375,-0.1091794097084552,1.8611001611053943,0.3351030748890712,1743715038252056000,3.37805615234375,0.0079269632697105,0.359634667634964,0.0194831490516662
1743715038262019000,3.38801904296875,-0.3242038970708847,1.590012937194109,0.4597855394819751,1743715038262019000,3.38801904296875,-0.0096802301704883,0.3999455869197845,0.0112582454457879
1743715038271983000,3.397983154296875,-0.2405014584463089,1.428945007881522,0.777496165543422,1743715038271983000,3.397983154296875,-0.0066921631805598,0.4146552979946136,0.0118982028216123
1743715038281946000,3.407946044921875,-0.3905237872073426,1.476573605018854,1.2627325552873312,1743715038281946000,3.407946044921875,0.0291742254048585,0.4581314027309418,0.0175499618053436
1743715038291910100,3.41791015625,-0.6417793159127235,1.735147384315729,1.5208420780733227,1743715038291910100,3.41791015625,0.0536982081830501,0.4860410690307617,0.0100353211164474
1743715038301873200,3.427873046875,-0.6360591116350144,1.944583915477991,1.2767958596922455,1743715038301873200,3.427873046875,0.0509690605103969,0.4778404235839844,-0.0178865864872932
1743715038311836200,3.437836181640625,-0.5591874688785523,2.0274661968261003,0.9398895713061094,1743715038311836200,3.437836181640625,0.0420088581740856,0.4665627181529999,-0.0547186359763145
1743715038321800200,3.44780029296875,-0.576134000569582,2.063597248393297,0.6320101285051554,1743715038321800200,3.44780029296875,0.0298340767621994,0.4594695270061493,-0.1037338152527809
1743715038331763200,3.45776318359375,-0.5800444885442033,2.067978824478388,0.3623465807214379,1743715038331763200,3.45776318359375,0.0148980049416422,0.4401357769966125,-0.1533602178096771
1743715038341727200,3.467727294921875,-0.5133738852739334,1.977880035880208,0.1894156700598075,1743715038341727200,3.467727294921875,-0.0052233268506824,0.4089222550392151,-0.1957912892103195
1743715038351690000,3.47768994140625,-0.363739825178124,1.8119196583509445,0.0250771398450247,1743715038351690000,3.47768994140625,-0.0207402352243661,0.3580649197101593,-0.2221560478210449
1743715038361653000,3.487653076171875,-0.2183668931255117,1.631658368268609,-0.0521442113982513,1743715038361653000,3.487653076171875,-0.0167092196643352,0.3108305037021637,-0.238749697804451
1743715038371617000,3.497616943359375,-0.0867243437290191,1.422208977624774,-0.0160556746653746,1743715038371617000,3.497616943359375,0.0130955474451184,0.2737766206264496,-0.2561566531658172
1743715038381580000,3.507580078125,0.0981950012922286,1.2609107466876506,0.076932268636208,1743715038381580000,3.507580078125,0.044227447360754,0.2269583493471145,-0.2698144316673279
1743715038391544000,3.5175439453125,0.2502677232444286,1.076483569097519,0.1652608144251629,1743715038391544000,3.5175439453125,0.0811931863427162,0.1794467568397522,-0.27735036611557
1743715038401507000,3.527507080078125,0.4012310591826215,0.8907207589894532,0.3704014384917914,1743715038401507000,3.527507080078125,0.1309869736433029,0.1451015323400497,-0.2753276824951172
1743715038411470000,3.537469970703125,0.5386334142148494,0.7610217814087867,0.5788562651403248,1743715038411470000,3.537469970703125,0.1826962530612945,0.1270522177219391,-0.2578621208667755
1743715038421434000,3.54743408203125,0.6787970871865749,0.7825082215517759,0.698522582071647,1743715038421434000,3.54743408203125,0.2248655408620834,0.1213341504335403,-0.2408985793590545
1743715038431397000,3.557397216796875,0.8216565751135348,0.8977361907094716,0.7503083719536662,1743715038431397000,3.557397216796875,0.2467737644910812,0.1156720072031021,-0.2112618535757064
1743715038441361200,3.567361083984375,0.8744517612338065,1.054012209570408,0.8244491284415125,1743715038441361200,3.567361083984375,0.2545841932296753,0.1084808185696601,-0.1546303033828735
1743715038451324200,3.57732421875,0.880286458736658,1.2857570186525582,0.8863371370777487,1743715038451324200,3.57732421875,0.2483547776937484,0.103867158293724,-0.0855220705270767
1743715038461288200,3.5872880859375,0.8935632889389992,1.532678938600421,0.9392793304532766,1743715038461288200,3.5872880859375,0.232825830578804,0.1129786074161529,0.0001616689842194
1743715038471251200,3.597251220703125,0.8385422434628009,1.6972329564630984,1.0067316952183842,1743715038471251200,3.597251220703125,0.216163232922554,0.1264954805374145,0.0963635668158531
1743715038481214200,3.607214111328125,0.7134159806251525,1.7117495575934647,1.0834664137221872,1743715038481214200,3.607214111328125,0.2081363648176193,0.144553005695343,0.1857366412878036
1743715038491178200,3.61717822265625,0.6099988242378458,1.5393915879815816,1.1396211394034326,1743715038491178200,3.61717822265625,0.2157615274190902,0.1571353673934936,0.2523444294929504
1743715038501141000,3.62714111328125,0.6662766283094883,1.3043150041282177,1.1858093284741045,1743715038501141000,3.62714111328125,0.2317197322845459,0.1463121175765991,0.3056358397006988
1743715038511105000,3.63710498046875,0.8291770337462425,1.1342729102432727,1.1725389280125498,1743715038511105000,3.63710498046875,0.2502113878726959,0.153634488582611,0.3512493968009949
1743715038521068000,3.647068115234375,0.8471405604600906,0.9626058455049992,1.122335365820676,1743715038521068000,3.647068115234375,0.2759433686733246,0.1815859526395797,0.3989506065845489
1743715038531031000,3.657031005859375,0.8296551726520061,0.6595160481333732,1.0376770877759902,1743715038531031000,3.657031005859375,0.2951080203056335,0.2180185317993164,0.4368452727794647
1743715038540995000,3.6669951171875,0.989387469446659,0.1776344487100839,0.8775408132903277,1743715038540995000,3.6669951171875,0.3052092790603637,0.2580486536026001,0.446586012840271
1743715038550958000,3.6769580078125,1.2439864998936652,-0.4486901084393263,0.6969741105206311,1743715038550958000,3.6769580078125,0.3084660470485687,0.2768513560295105,0.4519965052604675
1743715038560921000,3.686921142578125,1.4659645327210429,-1.2101719085752964,0.5069437791611999,1743715038560921000,3.686921142578125,0.3167182505130768,0.3139892816543579,0.4572333693504333
1743715038570885000,3.696885009765625,1.3420716110706328,-1.902899321436882,0.471396701494418,1743715038570885000,3.696885009765625,0.3295746445655823,0.3459243178367615,0.4528330266475677
1743715038580848000,3.70684814453125,1.4522902276337146,-2.5564766271710395,0.3142025814078748,1743715038580848000,3.70684814453125,0.3284071385860443,0.3055489361286163,0.4713198840618133
1743715038590812200,3.716812255859375,1.5353823523402212,-2.862748561710119,0.2288327210277319,1743715038590812200,3.716812255859375,0.3109261691570282,0.2269843518733978,0.5614122152328491
1743715038600775200,3.726775146484375,1.2682324678778647,-2.892154104414582,0.4455124282512813,1743715038600775200,3.726775146484375,0.2937072515487671,0.1799979358911514,0.6775808930397034
1743715038610738200,3.73673828125,0.3948888870816677,-3.345568318766355,0.9878940160185098,1743715038610738200,3.73673828125,0.3566713035106659,0.2345906049013137,0.7322689294815063
1743715038620702200,3.7467021484375,0.0034756402213126,-4.648800788354873,1.151600842467323,1743715038620702200,3.7467021484375,0.4888809025287628,0.2402881383895874,0.7578355669975281
1743715038630665000,3.7566650390625,0.5719244200505316,-6.939221756041049,0.1968389884609729,1743715038630665000,3.7566650390625,0.6642516255378723,0.2127609103918075,0.6979599595069885
1743715038640629000,3.76662890625,0.7527624871075153,-8.662942906457186,-1.0187745266463606,1743715038640629000,3.76662890625,0.7991706728935242,0.2500729858875274,0.5234294533729553
1743715038650592000,3.776592041015625,0.4100455396812409,-9.368375487113,-2.605040751592815,1743715038650592000,3.776592041015625,0.7275537252426147,0.2944825291633606,0.1241558194160461
1743715038660555000,3.786554931640625,0.2663714474357664,-9.438835509261487,-4.305509913498163,1743715038660555000,3.786554931640625,0.470831423997879,0.342983216047287,-0.3974096179008484
1743715038670519000,3.79651904296875,-0.6862975259445607,-7.633055084317922,-4.559594564682245,1743715038670519000,3.79651904296875,0.2757583260536194,0.4090887308120727,-0.7012624740600586
1743715038680482000,3.80648193359375,-2.041015998750925,-4.055037023070454,-3.175745712850988,1743715038680482000,3.80648193359375,0.135209783911705,0.4066137075424194,-0.7230862975120544
1743715038690445300,3.8164453125,-1.8458686897039407,-1.1468301939994097,-1.6854051560252905,1743715038690445300,3.8164453125,0.0562571883201599,0.2146703451871872,-0.5733343362808228
1743715038700409000,3.8264091796875,-1.657016681408882,1.490044496488571,-0.474648579429835,1743715038700409000,3.8264091796875,-0.0192119739949703,-0.0049623977392911,-0.3884478807449341
1743715038710372000,3.8363720703125,-1.7985528117775915,3.6826603389829393,0.5558464878875762,1743715038710372000,3.8363720703125,-0.0700602456927299,-0.1728022545576095,-0.2835004031658172
1743715038720336100,3.846336181640625,-1.876108345144987,5.348073092815279,1.2115945617895572,1743715038720336100,3.846336181640625,-0.0883354395627975,-0.2230981290340423,-0.2526098489761352
1743715038730299100,3.856299072265625,-1.7100842547297477,6.271544028761983,1.3339990715131165,1743715038730299100,3.856299072265625,-0.112592838704586,-0.2146194279193878,-0.2216822952032089
1743715038740262100,3.86626220703125,-1.32312842566967,6.456444084560871,1.100864926964417,1743715038740262100,3.86626220703125,-0.1654672920703888,-0.2277548611164093,-0.1660962402820587
1743715038750226200,3.87622607421875,-0.9020949704408644,5.996510697573423,0.9131165690623224,1743715038750226200,3.87622607421875,-0.2209329456090927,-0.2512841820716858,-0.1430162191390991
1743715038760189200,3.886189208984375,-0.5153321066696196,4.907589671707153,0.6874379281513393,1743715038760189200,3.886189208984375,-0.3170689344406128,-0.3041931390762329,-0.1685737669467926
1743715038770153200,3.8961533203125,-0.126196010961011,3.419522028249502,0.2180664123415946,1743715038770153200,3.8961533203125,-0.3879558742046356,-0.3673955202102661,-0.1988997161388397
1743715038780116000,3.906115966796875,-0.1360054573137313,2.2653858951509,-0.0707691611628979,1743715038780116000,3.906115966796875,-0.4165241420269012,-0.384396880865097,-0.1902663558721542
1743715038790079200,3.916079345703125,-0.2463654551088809,1.107494208911061,-0.3161922939203679,1743715038790079200,3.916079345703125,-0.3961802721023559,-0.3829683661460876,-0.1493442207574844
1743715038800043000,3.92604296875,-0.352995107269287,0.0837923819303512,-0.462939290805161,1743715038800043000,3.92604296875,-0.3414621651172638,-0.3731568455696106,-0.1072246804833412
1743715038810006000,3.936006103515625,-0.5463666388154029,-0.7145943767547607,-0.4644221497740596,1743715038810006000,3.936006103515625,-0.2560617625713348,-0.3677255809307098,-0.0799291431903839
1743715038819969300,3.94596923828125,-0.6520633940398692,-1.1852888117313385,-0.3408142556101083,1743715038819969300,3.94596923828125,-0.1632768362760543,-0.3957855999469757,-0.0797544121742248
1743715038829933000,3.95593310546875,-0.4742483280658721,-1.285270696440339,-0.2872862251706421,1743715038829933000,3.95593310546875,-0.0806203112006187,-0.4367055892944336,-0.0995432958006858
1743715038839896300,3.965896240234375,-0.4169522503297775,-0.7297182961285114,-0.1560043623127043,1743715038839896300,3.965896240234375,-0.0183583032339811,-0.4703275561332702,-0.1167611852288246
1743715038849860000,3.975860107421875,-0.2564987996537238,-0.0050134442478418,-0.0605887626059353,1743715038849860000,3.975860107421875,0.0142776696011424,-0.4942089319229126,-0.1540627479553222
1743715038859823000,3.985822998046875,0.104033132861182,0.6652671590059995,0.0273571588072925,1743715038859823000,3.985822998046875,0.0276965461671352,-0.498683214187622,-0.1939970999956131
1743715038869786400,3.995786376953125,0.2863536935608833,1.215906652835011,0.0730411246828734,1743715038869786400,3.995786376953125,0.023074897006154,-0.4783936738967895,-0.2010432928800583
1743715038879750100,4.005750244140625,0.3079179116478189,1.5983973191797731,0.0777261406939476,1743715038879750100,4.005750244140625,-0.0045112278312444,-0.4581827521324157,-0.1752721667289734
1743715038889713200,4.015713134765625,0.3166366766870022,1.7819342699319125,0.0780767807625234,1743715038889713200,4.015713134765625,-0.0370302870869636,-0.4266799688339233,-0.1449145227670669
1743715038899676200,4.02567626953125,0.3554197771329432,1.7605577199041842,0.0600773790176957,1743715038899676200,4.02567626953125,-0.0713047832250595,-0.3813425302505493,-0.1190027594566345
1743715038909640200,4.03564013671875,0.433037123690173,1.6514409271031618,-0.0457020129889249,1743715038909640200,4.03564013671875,-0.0999723747372627,-0.3505886197090149,-0.0891410037875175
1743715038919603200,4.045603271484375,0.479971893344447,1.5561305413365365,-0.1854616352044046,1743715038919603200,4.045603271484375,-0.1205092072486877,-0.3337365090847015,-0.0610207207500934
1743715038929567000,4.05556689453125,0.4717254219921305,1.5085206488996743,-0.3257316180948167,1743715038929567000,4.05556689453125,-0.1273932158946991,-0.3281244337558746,-0.0416451543569564
1743715038939530200,4.0655302734375,0.405750509368442,1.4904396332859993,-0.4081603104565292,1743715038939530200,4.0655302734375,-0.1223701760172844,-0.3326059281826019,-0.0305145140737295
1743715038949493200,4.0754931640625,0.3859656489789486,1.5334493384510277,-0.4349906689107418,1743715038949493200,4.0754931640625,-0.1085534319281578,-0.3457555472850799,-0.0301179680973291
1743715038959457300,4.085457275390625,0.4883715459644794,1.6194617345184086,-0.4213394524380564,1743715038959457300,4.085457275390625,-0.0913081765174865,-0.345807820558548,-0.039901852607727
1743715038969420300,4.095420166015625,0.5337736992239952,1.7019360195875166,-0.433829735372588,1743715038969420300,4.095420166015625,-0.0743824616074562,-0.3362857103347778,-0.0459482930600643
1743715038979383300,4.10538330078125,0.5203145712573081,1.7677064226150512,-0.4627800816554576,1743715038979383300,4.10538330078125,-0.0605540536344051,-0.3283190727233886,-0.0444963164627552
1743715038989347300,4.115347412109375,0.5084849076559766,1.8698627287536855,-0.4539784241057932,1743715038989347300,4.115347412109375,-0.044868566095829,-0.3091251254081726,-0.0336769595742225
1743715038999310600,4.125310546875,0.4774292231243103,1.9323428580641744,-0.3811166015125811,1743715038999310600,4.125310546875,-0.028986232355237,-0.285026878118515,-0.021050889045
1743715039009273300,4.1352734375,0.4972025757391005,1.959222097161412,-0.4354504684422164,1743715039009273300,4.1352734375,-0.0247520729899406,-0.2525389790534973,-0.0054277214221656
1743715039019237400,4.1452373046875,0.5251157609939575,1.943478000062704,-0.4710892064478248,1743715039019237400,4.1452373046875,-0.019410191103816,-0.2159487903118133,0.0181042235344648
1743715039029200400,4.155200439453125,0.5085048909980804,1.8631027330994605,-0.4534638256471603,1743715039029200400,4.155200439453125,-0.023712795227766,-0.1701394766569137,0.048919927328825
1743715039039164400,4.165164306640625,0.5462134210150689,1.6725883445501326,-0.4049034275524318,1743715039039164400,4.165164306640625,-0.0279383230954408,-0.1117452532052993,0.0921255126595497
1743715039049127400,4.17512744140625,0.5824878265757113,1.255728960135579,-0.2975251489818096,1743715039049127400,4.17512744140625,-0.0213611144572496,-0.0657964050769805,0.1374485194683075
1743715039059090400,4.18509033203125,0.563590233882144,0.7615747391164303,-0.2783773809194564,1743715039059090400,4.18509033203125,-0.0329262726008892,-0.0624490678310394,0.1753228604793548
1743715039069054500,4.195054443359375,0.6029986996848136,0.2527835054576396,-0.2659442349996417,1743715039069054500,4.195054443359375,-0.0441911779344081,-0.0779646411538124,0.2062426805496215
1743715039079017500,4.205017578125,0.5916939732730389,-0.1772474952191114,-0.2953825839951634,1743715039079017500,4.205017578125,-0.1152302846312522,-0.043043352663517,0.2399324923753738
1743715039088980500,4.21498046875,0.4993406472137197,-0.6694926677465438,-0.3435554440770298,1743715039088980500,4.21498046875,-0.1566608101129531,0.0040354770608246,0.2580893635749817
1743715039098944500,4.224944580078125,0.698721173383668,-1.3225713763087987,-0.3686504666386171,1743715039098944500,4.224944580078125,-0.0637596473097801,0.0351455435156822,0.2408794611692428
1743715039108907500,4.234907470703125,0.9210018424194304,-1.8591081105053424,-0.6381354064524173,1743715039108907500,4.234907470703125,-0.0745920613408088,0.1835690885782241,0.2637030184268951
1743715039118871600,4.24487158203125,0.8415559652607888,-2.200189492619037,-0.6252284324757754,1743715039118871600,4.24487158203125,-0.0865465253591537,0.2518568038940429,0.318278968334198
1743715039128834600,4.25483447265625,1.4527134214818476,-2.59938988622427,-0.6884822495725006,1743715039128834600,4.25483447265625,-0.1137595027685165,0.3062023222446441,0.3809125125408172
1743715039138797300,4.26479736328125,1.871634414601326,-2.682632233056426,-0.6150741182081401,1743715039138797300,4.26479736328125,-0.1559233516454696,0.3248191773891449,0.485644519329071
1743715039148761300,4.27476123046875,1.1794085215210914,-2.935528551238775,-0.1304037648491561,1743715039148761300,4.27476123046875,-0.2017960250377655,0.2116390913724899,0.6159985661506653
1743715039158724400,4.284724365234375,-0.492781179100275,-3.842783096399903,0.705165308021754,1743715039158724400,4.284724365234375,-0.2393044084310531,-0.0570243708789348,0.7432648539543152
1743715039168687400,4.294687255859375,-1.148424185192585,-5.50165621933043,1.2054901804998517,1743715039168687400,4.294687255859375,-0.2132110148668289,-0.3020695447921753,0.7507035732269287
1743715039178651400,4.3046513671875,-0.4709397880397736,-7.497826529660821,1.0508873555481433,1743715039178651400,4.3046513671875,-0.2863501608371734,-0.2562534809112549,0.5787811279296875
1743715039188614400,4.314614501953125,-0.0762649090349674,-9.440649865207076,-0.0312103636367246,1743715039188614400,4.314614501953125,-0.2191093564033508,-0.0696814581751823,0.1922488212585449
1743715039198578400,4.324578369140625,-0.0665337886154651,-10.450491509139535,-1.3709789949946103,1743715039198578400,4.324578369140625,-0.1564052999019622,0.1746530532836914,-0.3187278509140014
1743715039208541400,4.33454150390625,-0.5865081681329757,-10.125989505904911,-2.1747047766201195,1743715039208541400,4.33454150390625,-0.1224417313933372,0.2556571066379547,-0.7812300324440002
1743715039218504400,4.34450439453125,-1.8521137215733527,-6.768968065232039,-1.5760463711619377,1743715039218504400,4.34450439453125,-0.1229592561721801,0.3417155146598816,-0.8912339806556702
1743715039228468500,4.354468505859375,-2.450493456220627,-1.9173405192434787,-0.2559332016602158,1743715039228468500,4.354468505859375,-0.1963607519865036,0.3556222915649414,-0.8123099207878113
1743715039238431500,4.364431396484375,-1.2762930247366429,1.3507061684250832,0.9285787804797292,1743715039238431500,4.364431396484375,-0.2486507594585418,0.4028551876544952,-0.6544230580329895
1743715039248394500,4.37439453125,-1.4167840299665928,4.087202678138017,1.972041392854601,1743715039248394500,4.37439453125,-0.2097033560276031,0.5648560523986816,-0.3782317042350769
1743715039258358500,4.384358642578125,-2.5365713187396524,5.918150277563929,2.9474408150896427,1743715039258358500,4.384358642578125,-0.0893400385975837,0.7873398661613464,-0.0887386053800582
1743715039268321300,4.3943212890625,-3.0047254215836525,6.8437436124920845,3.19712372418344,1743715039268321300,4.3943212890625,-0.0046999854966998,0.9464155435562134,0.0904623046517372
1743715039278285300,4.404285400390625,-2.6748972548902032,6.800179196053743,2.56690099055171,1743715039278285300,4.404285400390625,-0.0017249141819775,1.001514196395874,0.1272280216217041
1743715039288248300,4.414248291015625,-1.8502888442337515,5.976584346354008,1.8676997055009008,1743715039288248300,4.414248291015625,-0.0326567329466342,1.0072383880615234,0.0625725984573364
1743715039298211300,4.42421142578125,-1.1718284416556357,4.721903433966636,1.5868024507150054,1743715039298211300,4.42421142578125,-0.0704127177596092,0.9601523876190186,-0.015174375846982
1743715039308175400,4.43417529296875,-0.7738005989611149,3.338204512000084,1.6358204563841223,1743715039308175400,4.43417529296875,-0.0594620630145072,0.8631789684295654,-0.0920955240726471
1743715039318138400,4.444138427734375,-0.3067289575915783,1.9651111552000045,1.6502933645032345,1743715039318138400,4.444138427734375,-0.0187881141901016,0.8170079588890076,-0.1779893189668655
1743715039328101400,4.454101318359375,-0.0552292083341628,0.8177110523581504,1.5885177302002906,1743715039328101400,4.454101318359375,0.0346239805221557,0.8379052877426147,-0.2173883914947509
1743715039338065400,4.4640654296875,-0.1137327621638774,-0.1362403620481491,1.3716221152037382,1743715039338065400,4.4640654296875,0.0651241019368171,0.8590899705886841,-0.1920902878046035
1743715039348028400,4.4740283203125,-0.2045733821053058,-0.881409325286746,0.8968240443006157,1743715039348028400,4.4740283203125,0.0671145468950271,0.8659124374389648,-0.1751840114593505
1743715039357992400,4.483992431640625,-0.3317664412796497,-1.3250216920703648,0.4145836580349132,1743715039357992400,4.483992431640625,0.0185415968298912,0.9028014540672302,-0.1832249015569687
1743715039367955500,4.49395556640625,-0.5511444476764649,-1.5658943949818611,0.0849535346642136,1743715039367955500,4.49395556640625,-0.0364617370069026,0.9051764607429504,-0.213514894247055
1743715039377918500,4.50391845703125,-0.5350035698125138,-1.661733188536763,-0.1448136176694184,1743715039377918500,4.50391845703125,-0.0759177207946777,0.871562123298645,-0.2446014881134033
1743715039387882500,4.513882568359375,-0.6214543938297779,-1.438285083156824,-0.1206194164050742,1743715039387882500,4.513882568359375,-0.0860228165984153,0.8085498809814453,-0.2421702891588211
1743715039397845200,4.52384521484375,-0.7535176893889903,-0.8534785313099622,-0.0744675772894173,1743715039397845200,4.52384521484375,-0.0810528770089149,0.7496861219406128,-0.2048194408416748
1743715039407808300,4.533808349609375,-0.6454138730227947,-0.3117377987295389,-0.1060651866780593,1743715039407808300,4.533808349609375,-0.0693834349513053,0.6966249942779541,-0.1641535013914108
1743715039417772300,4.543772216796875,-0.3645090194523334,0.1741501137256622,-0.1248339288275688,1743715039417772300,4.543772216796875,-0.0656384825706482,0.6569375395774841,-0.150895670056343
1743715039427735300,4.5537353515625,-0.0704664884218946,0.6150865392982959,-0.0888198181709274,1743715039427735300,4.5537353515625,-0.0712199360132217,0.6278222799301147,-0.1423850059509277
1743715039437699300,4.56369921875,0.0466506920158863,1.020199371817708,-0.012085318862833,1743715039437699300,4.56369921875,-0.0815472081303596,0.6086229085922241,-0.1165784746408462
1743715039447662300,4.573662353515625,0.1330161027720198,1.3072978193312883,0.0820591283969581,1743715039447662300,4.573662353515625,-0.0874098911881446,0.5807795524597168,-0.0767730101943016
1743715039457625300,4.583625244140625,0.2755693377614021,1.5348241339355706,0.2577328349607065,1743715039457625300,4.583625244140625,-0.0813019499182701,0.5313204526901245,-0.0342154093086719
1743715039467589400,4.59358935546875,0.4103612545669078,1.7525503545373675,0.4101119925135746,1743715039467589400,4.59358935546875,-0.0613809786736965,0.4927959740161896,0.015578513033688
1743715039477552400,4.603552490234375,0.4525859103014692,1.8908721990346908,0.4409195840356871,1743715039477552400,4.603552490234375,-0.0370511673390865,0.4575729966163635,0.0548462867736816
1743715039487515400,4.613515380859375,0.4863222487518563,2.000095374819636,0.4485678337665274,1743715039487515400,4.613515380859375,-0.0119934855028986,0.4258752465248108,0.0848689004778862
1743715039497479400,4.6234794921875,0.4909960492491722,2.0886217995345597,0.3987819855300709,1743715039497479400,4.6234794921875,0.009864424355328,0.3960218727588653,0.1149479299783706
1743715039507442400,4.6334423828125,0.5179015918314457,2.14630534221828,0.3587653247011825,1743715039507442400,4.6334423828125,0.0334704183042049,0.3890103101730346,0.1191285550594329
1743715039517406500,4.643406494140625,0.6494003123104571,2.142694165983796,0.4035790470808744,1743715039517406500,4.643406494140625,0.0561948791146278,0.3678483366966247,0.1137383431196212
1743715039527369200,4.653369140625,0.7306149527072906,2.1169880623191597,0.555541440526396,1743715039527369200,4.653369140625,0.0775467753410339,0.34353768825531,0.1193062141537666
1743715039537332200,4.663332275390625,0.7760217821419239,2.1091133834213016,0.7343450791463255,1743715039537332200,4.663332275390625,0.104832999408245,0.324613094329834,0.1195373982191085
1743715039547296300,4.673296142578125,0.8322516188859939,2.1599445759922267,0.9160017691098152,1743715039547296300,4.673296142578125,0.1252671629190445,0.3152304887771606,0.1100514829158783
1743715039557259300,4.68325927734375,0.7868658322393893,2.180792133709788,1.0072352608263493,1743715039557259300,4.68325927734375,0.1308518052101135,0.3004072606563568,0.1057712286710739
1743715039567223300,4.693223388671875,0.7471896554112434,2.2113176203548908,1.0912886317804456,1743715039567223300,4.693223388671875,0.1366487145423889,0.2745682001113891,0.1120357811450958
1743715039577186300,4.703186279296875,0.6837538328111171,2.1868162163048983,1.1106699163377285,1743715039577186300,4.703186279296875,0.137067899107933,0.2618996202945709,0.1368444859981537
1743715039587149300,4.7131494140625,0.5728046369511633,2.1174165168643,1.0448948371350764,1743715039587149300,4.7131494140625,0.1306544691324234,0.2381458282470703,0.1682977527379989
1743715039597113300,4.72311328125,0.605043284189701,2.0333663607805965,1.0036526530992238,1743715039597113300,4.72311328125,0.1234634667634964,0.20633564889431,0.191034197807312
1743715039607076400,4.733076416015625,0.7121664189554751,1.8668752373754975,0.9399295379903166,1743715039607076400,4.733076416015625,0.1159727871417999,0.1756704151630401,0.2239663153886795
1743715039617039400,4.743039306640625,0.7042097608625888,1.5271587138742209,0.8818911905195563,1743715039617039400,4.743039306640625,0.121675431728363,0.1492054015398025,0.270032674074173
1743715039627003400,4.75300341796875,0.6338520300447941,1.042484268862009,0.8014845785699785,1743715039627003400,4.75300341796875,0.1386027485132217,0.1355697512626648,0.3185043334960937
1743715039636966400,4.76296630859375,0.7388087805569171,0.3354588660567998,0.6836481804795563,1743715039636966400,4.76296630859375,0.1652729660272598,0.1167168170213699,0.3420564830303192
1743715039646930400,4.772930419921875,1.151472978303954,-0.4938602065086364,0.582630486449413,1743715039646930400,4.772930419921875,0.1934928745031356,0.1241973713040351,0.3425678014755249
1743715039656893400,4.7828935546875,1.4406933133423327,-1.3806553164869546,0.4974544316083192,1743715039656893400,4.7828935546875,0.2347591817378997,0.1819604784250259,0.3349127769470215
1743715039666856200,4.792856201171875,1.6233154873371125,-2.253648111084104,0.5468344755228609,1743715039666856200,4.792856201171875,0.2744860649108886,0.1931390911340713,0.295389860868454
1743715039676820200,4.8028203125,2.058273423022032,-3.001063976466656,0.6498433799028396,1743715039676820200,4.8028203125,0.3147620260715484,0.1982401758432388,0.2638844549655914
1743715039686783200,4.812783203125,2.157470294833183,-3.3811709625452755,0.8792018783703446,1743715039686783200,4.812783203125,0.2936263978481293,0.1248098984360694,0.3280706107616424
1743715039696746200,4.822746337890625,2.244482223331928,-3.507477375078201,1.054628149511665,1743715039696746200,4.822746337890625,0.2698447704315185,0.079397976398468,0.4183738827705383
1743715039706710300,4.832710205078125,1.6578303358793258,-3.573972000727057,1.487765737901628,1743715039706710300,4.832710205078125,0.3343808948993683,0.127908244729042,0.5670523643493652
1743715039716673300,4.84267333984375,-0.3793897777199745,-4.0498604972153895,2.0729910996824503,1743715039716673300,4.84267333984375,0.5515863299369812,0.2349922060966491,0.8203878998756409
1743715039726637300,4.85263720703125,-1.2708756758630275,-5.548184746271372,1.9437810746625064,1743715039726637300,4.85263720703125,0.7997548580169678,0.3670210838317871,0.9622952938079834
1743715039736600300,4.862600341796875,0.3556685642622411,-7.785946136915683,0.1206469254665076,1743715039736600300,4.862600341796875,0.9096267819404602,0.4450803995132446,0.7188162803649902
1743715039746563300,4.872563232421875,1.8013572016738355,-9.0934520460397,-2.157731576117873,1743715039746563300,4.872563232421875,0.7928037643432617,0.384863406419754,0.1939011216163635
1743715039756527400,4.88252734375,1.591159769141674,-8.951931697762012,-3.994050347188115,1743715039756527400,4.88252734375,0.4864445924758911,0.226637527346611,-0.3402440249919891
1743715039766490400,4.892490478515625,0.2244412080705165,-7.052616080030798,-4.665115378817916,1743715039766490400,4.892490478515625,0.2423711866140365,0.1407234221696853,-0.5659722089767456
1743715039776454400,4.902454345703125,-1.9656103368937967,-3.5023289062738416,-3.380867595684528,1743715039776454400,4.902454345703125,0.1382404863834381,0.20329350233078,-0.4851711690425873
1743715039786417400,4.91241748046875,-2.4350386974573133,-0.7327566409111023,-1.7400548839710652,1743715039786417400,4.91241748046875,0.0749328881502151,0.0985172912478447,-0.2811724841594696
1743715039796380200,4.922380126953125,-2.04639710726738,1.4761591789990662,-0.5813087728589773,1743715039796380200,4.922380126953125,0.011492840014398,-0.1226280927658081,-0.095287300646305
1743715039806344200,4.93234423828125,-2.096089651197195,3.1734687078297137,0.2382920387685299,1743715039806344200,4.93234423828125,-0.0543021522462368,-0.3062224388122558,-0.0213230568915605
1743715039816307200,4.94230712890625,-1.9873288322269915,4.450393600729107,0.7858820088338107,1743715039816307200,4.94230712890625,-0.0846858993172645,-0.3834270536899566,-0.0541323572397232
1743715039826271200,4.952271240234375,-1.5736895789027212,5.074224587497115,0.7980674636028706,1743715039826271200,4.952271240234375,-0.0950101763010025,-0.3917955160140991,-0.118831992149353
1743715039836234200,4.962234130859375,-0.9843792858958244,4.794527940672635,0.3104547001164406,1743715039836234200,4.962234130859375,-0.1289265006780624,-0.3874531686306,-0.1746314018964767
1743715039846197200,4.972197265625,-0.2577438312787562,3.630194823208451,-0.4417176390781998,1743715039846197200,4.972197265625,-0.2041938304901123,-0.424958735704422,-0.2637926936149597
1743715039856161300,4.982161376953125,0.1610322004120797,2.2663298980027435,-0.894345452292636,1743715039856161300,4.982161376953125,-0.2630868852138519,-0.4688201546669006,-0.3456601202487945
1743715039866124300,4.992124267578125,0.0089033643584698,1.1016846458494662,-0.9600551381088792,1743715039866124300,4.992124267578125,-0.2944227159023285,-0.5173149704933167,-0.3782122135162353
1743715039876087600,5.002087646484375,-0.2816634899180382,0.0467658428281545,-0.9080446726255118,1743715039876087600,5.002087646484375,-0.2966058552265167,-0.5702826380729675,-0.3609011471271515
1743715039886051300,5.01205126953125,-0.5865734884541481,-0.8264765426158904,-0.6774426769029349,1743715039886051300,5.01205126953125,-0.2680879235267639,-0.594968855381012,-0.3189725875854492
1743715039896014300,5.022014404296875,-0.7590660442311317,-1.3528852660298347,-0.312221636723727,1743715039896014300,5.022014404296875,-0.2046741396188736,-0.5811830759048462,-0.2784227430820465
1743715039905978400,5.031978271484375,-0.8618238233942538,-1.3625813151359558,0.054762102279067,1743715039905978400,5.031978271484375,-0.1360391527414322,-0.5474101901054382,-0.2439995259046554
1743715039915941400,5.04194140625,-0.8886754438322036,-0.8869476701915263,0.3149683781486004,1743715039915941400,5.04194140625,-0.08408734947443,-0.5154051780700684,-0.2233323454856872
1743715039925904400,5.051904296875,-0.668230173530057,-0.2826449752360582,0.4279038524549454,1743715039925904400,5.051904296875,-0.0533092021942138,-0.5145271420478821,-0.2244583219289779
1743715039935868200,5.0618681640625,-0.255136863650754,0.2989981441438198,0.4455786253552883,1743715039935868200,5.0618681640625,-0.0353334099054336,-0.5050219297409058,-0.2319345772266388
1743715039945831400,5.07183154296875,-0.0894820449393242,0.972960650780797,0.5532001380972564,1743715039945831400,5.07183154296875,-0.0220314543694257,-0.4773250222206116,-0.2322871685028076
1743715039955795200,5.081795166015625,-0.1005015246689319,1.6220920830219985,0.6635567018263041,1743715039955795200,5.081795166015625,-0.0221116263419389,-0.4468668103218078,-0.227824792265892
1743715039965758200,5.09175830078125,-0.1148819321990013,2.1328741982370616,0.7483031696110963,1743715039965758200,5.09175830078125,-0.0429066494107246,-0.4177038669586181,-0.235967680811882
1743715039975721500,5.101721435546875,-0.0838660316884517,2.434300446310639,0.7264300682380795,1743715039975721500,5.101721435546875,-0.0832823067903518,-0.3856559097766876,-0.2399171441793441
1743715039985685200,5.111685302734375,-0.0732850529739633,2.604299870097637,0.677229253347963,1743715039985685200,5.111685302734375,-0.1231895089149475,-0.3312616348266601,-0.2228039354085922
1743715039995648500,5.1216484375,-0.2126606808405369,2.665135154810548,0.5906885956227779,1743715039995648500,5.1216484375,-0.1581872552633285,-0.2766047418117523,-0.1775272637605667
1743715040005612000,5.131612060546875,-0.2448270665604621,2.5924229698210954,0.4323238608542829,1743715040005612000,5.131612060546875,-0.1858071684837341,-0.2420590072870254,-0.1283482611179351
1743715040015575000,5.141574951171875,-0.1613162780504673,2.411740239456296,0.2048460615668445,1743715040015575000,5.141574951171875,-0.2077532112598419,-0.2212251722812652,-0.092027299106121
1743715040025538000,5.1515380859375,-0.0330055399578064,2.1745547006249426,0.0294927095312625,1743715040025538000,5.1515380859375,-0.2126148045063018,-0.2140218466520309,-0.0767325013875961
1743715040035502000,5.161502197265625,0.1242939036667346,1.9363842424094675,-0.1365126031182706,1743715040035502000,5.161502197265625,-0.2016192525625229,-0.2096042186021804,-0.0820649564266204
1743715040045465000,5.171465087890625,0.2849228570401668,1.7343004120975731,-0.2737127501092851,1743715040045465000,5.171465087890625,-0.1785043478012085,-0.199384868144989,-0.0995430126786232
1743715040055428900,5.181428955078125,0.40300913823843,1.568449340161681,-0.3949725467771292,1743715040055428900,5.181428955078125,-0.1540468335151672,-0.1954630762338638,-0.1099274680018425
1743715040065392000,5.19139208984375,0.4137491434395313,1.4327747953027483,-0.4718110909815877,1743715040065392000,5.19139208984375,-0.125048741698265,-0.1936124563217163,-0.1090835109353065
1743715040075355100,5.201355224609375,0.4400888688325882,1.350398709911108,-0.4876034842014312,1743715040075355100,5.201355224609375,-0.1009021624922752,-0.1955040991306305,-0.0872453302145004
1743715040085319200,5.211319091796875,0.5238134462237358,1.3010644778996705,-0.5405101678721607,1743715040085319200,5.211319091796875,-0.0812291279435157,-0.1981621980667114,-0.0443745590746402
1743715040095282200,5.2212822265625,0.6184627377331257,1.3240882106125351,-0.516062466770783,1743715040095282200,5.2212822265625,-0.0625982657074928,-0.1781871169805526,0.008256709203124
1743715040105246000,5.231245849609375,0.6947159563302994,1.347048814961314,-0.4848066930897534,1743715040105246000,5.231245849609375,-0.0542955994606018,-0.1389315873384475,0.0628587007522583
1743715040115209200,5.241209228515625,0.6955016998805106,1.2520394579678773,-0.461856610134989,1743715040115209200,5.241209228515625,-0.0545013584196567,-0.0857342556118965,0.1316206902265548
1743715040125172200,5.251172119140625,0.7250105568289756,1.120624324119091,-0.413273561817035,1743715040125172200,5.251172119140625,-0.0584502927958965,-0.0434509851038455,0.1967762559652328
1743715040135136000,5.261135986328125,0.6800163998484611,0.7402198163986206,-0.4092116461403667,1743715040135136000,5.261135986328125,-0.0752077922224998,-0.0038010680582374,0.2509702444076538
1743715040145099000,5.27109912109375,0.6021533714344725,0.2270814934462308,-0.4201639789178967,1743715040145099000,5.27109912109375,-0.106072761118412,0.0031556412577629,0.2892675697803497
1743715040155063000,5.28106298828125,0.7780781301498413,-0.3010673516333103,-0.4219427520934492,1743715040155063000,5.28106298828125,-0.1429978907108307,0.0185448247939348,0.3106756806373596
1743715040165026000,5.291026123046875,0.8136170610427856,-0.6945376771539449,-0.4306063163466751,1743715040165026000,5.291026123046875,-0.1802928000688552,0.0567225702106952,0.3293316662311554
1743715040174989000,5.300989013671875,0.6375356869935989,-1.0951368316411971,-0.3597120674993843,1743715040174989000,5.300989013671875,-0.2147124707698822,0.0960180610418319,0.3656941950321197
1743715040184953000,5.310953125,0.5777519571602344,-1.609414387756586,-0.2976743847267702,1743715040184953000,5.310953125,-0.2339972108602523,0.1379332840442657,0.4019645750522613
1743715040194916000,5.320916015625,0.6845172183990478,-2.1304554466575385,-0.2662046395014971,1743715040194916000,5.320916015625,-0.2381209880113601,0.1970231384038925,0.4203597903251648
1743715040204880000,5.3308798828125,0.7569512440342455,-2.4734932235360145,-0.3020512846367433,1743715040204880000,5.3308798828125,-0.2399726808071136,0.246486559510231,0.4475038051605224
1743715040214843100,5.340843017578125,0.8256686602991073,-2.563868490988016,-0.465767317305319,1743715040214843100,5.340843017578125,-0.2514809370040893,0.3220317363739013,0.5030587315559387
1743715040224806100,5.35080615234375,0.8315746694725006,-2.4373995813697573,-0.5621839838134125,1743715040224806100,5.35080615234375,-0.2889809012413025,0.3336034417152405,0.5697407722473145
1743715040234770200,5.360770263671875,1.1252758762519806,-2.412387889710069,-0.5264831038244069,1743715040234770200,5.360770263671875,-0.3431101441383362,0.3049828708171844,0.6125789880752563
1743715040244733200,5.370733154296875,0.2837339395165443,-2.653482126417756,0.070254891497828,1743715040244733200,5.370733154296875,-0.3744819164276123,0.1966686248779297,0.6550418138504028
1743715040254697000,5.380697021484375,-1.2221065303884446,-3.278963803002238,0.7737718112580477,1743715040254697000,5.380697021484375,-0.3656086921691894,-0.0602333657443523,0.6871105432510376
1743715040264660200,5.39066015625,-1.3596351786814629,-4.507138985779881,0.7939701112866401,1743715040264660200,5.39066015625,-0.3125174939632416,-0.2413690686225891,0.6077848672866821
1743715040274623200,5.400623291015625,-0.5013070153832435,-5.904255607724189,0.154280424596928,1743715040274623200,5.400623291015625,-0.2514217495918274,-0.1682369112968444,0.3386378586292267
1743715040284587300,5.410587158203125,0.0743875708557665,-6.706311410310864,-0.7015382766310125,1743715040284587300,5.410587158203125,-0.2260708510875702,0.0654208585619926,-0.019242251291871
1743715040294550000,5.420550048828125,-0.2133317850351333,-6.407952148592472,-1.175841330558807,1743715040294550000,5.420550048828125,-0.2230210602283477,0.2740708589553833,-0.2791159749031067
1743715040304514000,5.43051416015625,-1.3809411476910114,-4.060821451690793,-0.789729404976964,1743715040304514000,5.43051416015625,-0.211310863494873,0.4087155163288116,-0.340930312871933
1743715040314477000,5.44047705078125,-2.199934933336079,-1.3786936610251663,0.2815947355307638,1743715040314477000,5.44047705078125,-0.2392355054616928,0.3946502804756164,-0.3092491030693054
1743715040324440000,5.450440185546875,-2.193422044310718,0.7552011124312877,1.4181770917601884,1743715040324440000,5.450440185546875,-0.2499677687883377,0.3121751248836517,-0.2539086043834686
1743715040334404000,5.460404052734375,-1.9759914456546304,2.5090917756617066,2.350322624810785,1743715040334404000,5.460404052734375,-0.2137645781040191,0.3063990771770477,-0.1836032420396804
1743715040344367000,5.4703671875,-1.7610510563790798,3.750070325911045,2.8114003595277666,1743715040344367000,5.4703671875,-0.1321898251771927,0.39727383852005,-0.1027448773384094
1743715040354331100,5.4803310546875,-1.5480524488210676,4.443479291296005,2.709918883910775,1743715040354331100,5.4803310546875,-0.0525233261287212,0.5034779906272888,-0.0403574369847774
1743715040364294100,5.490294189453125,-1.1862705893103032,4.366062874138355,2.128883667296171,1743715040364294100,5.490294189453125,-0.0257548298686742,0.5495749115943909,-0.0348177962005138
1743715040374257200,5.500257080078125,-0.6370353362560272,3.027959582176804,1.287451693741232,1743715040374257200,5.500257080078125,-0.0357466675341129,0.5326778292655945,-0.1000847220420837
1743715040384221200,5.51022119140625,-0.4369814043365418,1.743399664354324,0.9051398910947144,1743715040384221200,5.51022119140625,-0.0144941108301281,0.5197095274925232,-0.1746044903993606
1743715040394184200,5.52018408203125,-0.5696621742069721,0.8638713305085897,0.7513278511945157,1743715040394184200,5.52018408203125,0.0129765262827277,0.5209299325942993,-0.2209232300519943
1743715040404148200,5.530148193359375,-0.7395357796572148,0.1145879176884889,0.5497280050072819,1743715040404148200,5.530148193359375,0.0315107963979244,0.5312856435775757,-0.2379871606826782
1743715040414111200,5.540111328125,-0.8072199073515832,-0.4135287786871194,0.3123581225849688,1743715040414111200,5.540111328125,0.0303293261677026,0.5508297681808472,-0.2416109293699264
1743715040424074000,5.550073974609375,-0.695680344383046,-0.7356131993860006,0.0800690322919748,1743715040424074000,5.550073974609375,0.0103233940899372,0.5577142834663391,-0.2424274533987045
1743715040434038000,5.5600380859375,-0.6007049627244472,-0.7055915706098079,0.0174738617670722,1743715040434038000,5.5600380859375,-0.00492554763332,0.5675706267356873,-0.244362786412239
1743715040444001000,5.5700009765625,-0.6857903801400214,-0.3846417068988084,0.1100758288252167,1743715040444001000,5.5700009765625,-0.0070049436762928,0.5767529010772705,-0.2238857448101043
1743715040453965000,5.579965087890625,-0.7746038051027804,0.0435737687885761,0.254546277346462,1743715040453965000,5.579965087890625,-0.0104654682800173,0.5639206171035767,-0.1829119026660919
1743715040463928000,5.589927978515625,-0.7279051092267036,0.4305453799396753,0.4277003657720983,1743715040463928000,5.589927978515625,-0.0010357477003708,0.5437180995941162,-0.142072319984436
1743715040473891000,5.59989111328125,-0.665035103815794,0.8153852397590875,0.5392595467565581,1743715040473891000,5.59989111328125,0.0094195045530796,0.5140537619590759,-0.1116195991635322
1743715040483855000,5.609855224609375,-0.6216168178498744,1.2088251701414583,0.5043216139640658,1743715040483855000,5.609855224609375,0.0143069382756948,0.4720727205276489,-0.0946568623185157
1743715040493818000,5.619818115234375,-0.4396843796849251,1.543710035702586,0.324780710578151,1743715040493818000,5.619818115234375,0.0096568437293171,0.4311393797397613,-0.1050788983702659
1743715040503782100,5.6297822265625,-0.3246539058607071,1.849073038703203,0.1846140053991228,1743715040503782100,5.6297822265625,0.0034197205677628,0.4036771357059479,-0.1162239611148834
1743715040513745200,5.6397451171875,-0.4037199168562889,2.1596067223399875,0.1774420131442137,1743715040513745200,5.6397451171875,-0.0009665774414315,0.371440976858139,-0.1259423345327377
1743715040523708200,5.649708251953125,-0.3997627036631107,2.242932655802369,0.144260331168212,1743715040523708200,5.649708251953125,-0.0014004063559696,0.3355887234210968,-0.141836866736412
1743715040533672200,5.659672119140625,-0.3147570004202425,2.2168197249025106,0.1592385401946492,1743715040533672200,5.659672119140625,0.0056554032489657,0.2943158447742462,-0.1578741669654846
1743715040543635200,5.66963525390625,-0.2298199784994125,2.17620188331008,0.1888706033976748,1743715040543635200,5.66963525390625,0.0094040688127279,0.2461682856082916,-0.1539811491966247
1743715040553599200,5.67959912109375,-0.14440730189085,2.058048382094502,0.3066810998618602,1743715040553599200,5.67959912109375,0.0263028405606746,0.2013141363859176,-0.1278071254491806
1743715040563562200,5.689562255859375,-0.0239640823028981,1.9961808317244047,0.4250490475457161,1743715040563562200,5.689562255859375,0.0547222308814525,0.1649265736341476,-0.0998673662543296
1743715040573525000,5.69952490234375,0.1360532419782132,1.8596581456035373,0.5429937283162027,1743715040573525000,5.69952490234375,0.0925899371504783,0.1357698589563369,-0.0737741962075233
1743715040583489000,5.709489013671875,0.1754710601311176,1.7372271131992338,0.6580476560812443,1743715040583489000,5.709489013671875,0.1237502619624137,0.1064729541540145,-0.0530289784073829
1743715040593452000,5.7194521484375,0.2009328336458653,1.6569219888627529,0.7851612202785909,1743715040593452000,5.7194521484375,0.1436433494091034,0.0751444846391677,-0.0379363484680652
1743715040603416000,5.729416015625,0.2675415141284465,1.538305546310544,0.8851796376056968,1743715040603416000,5.729416015625,0.1487920433282852,0.0455013774335384,-0.0223928093910217
1743715040613379000,5.739379150390625,0.2700304813999682,1.3997586608856916,0.9611102001197636,1743715040613379000,5.739379150390625,0.1456507742404937,0.0231142975389957,0.0120338685810565
1743715040623342000,5.749342041015625,0.2091033536851406,1.319694944089651,1.088877332855016,1743715040623342000,5.749342041015625,0.141297310590744,0.0191698912531137,0.0679053887724876
1743715040633306000,5.75930615234375,0.1881797350566834,1.2606032881736755,1.2280123934313654,1743715040633306000,5.75930615234375,0.1356785595417022,0.0273960586637258,0.1356535106897354
1743715040643269000,5.76926904296875,0.2118914500337094,1.2331851198941468,1.3551239848673342,1743715040643269000,5.76926904296875,0.1281822919845581,0.041049551218748,0.2072547376155853
1743715040653233200,5.779233154296875,0.3079096918087452,1.1714297977268695,1.4189628353103994,1743715040653233200,5.779233154296875,0.1197704449295997,0.0635667145252227,0.274887353181839
1743715040663196200,5.789196044921875,0.3397989410877227,0.9466513205260038,1.4040978591337798,1743715040663196200,5.789196044921875,0.1183983907103538,0.0966285243630409,0.3331626355648041
1743715040673160200,5.79916015625,0.3865221868831664,0.5310352141708136,1.2525434619672595,1743715040673160200,5.79916015625,0.1210639253258705,0.1278480142354965,0.3752294182777405
1743715040683123200,5.809123291015625,0.5619312876939774,-0.0789303288519382,1.0020231522012502,1743715040683123200,5.809123291015625,0.1337802559137344,0.1524750590324401,0.3919673860073089
1743715040693086200,5.819086181640625,0.8735714712679385,-0.7864350396066904,0.7465683086425066,1743715040693086200,5.819086181640625,0.1412985026836395,0.198466494679451,0.3941836655139923
1743715040703050200,5.82905029296875,1.0375509041130542,-1.420759363338351,0.4645586356353014,1743715040703050200,5.82905029296875,0.1405991464853286,0.2324196696281433,0.3846146762371063
1743715040713013000,5.839012939453125,0.9685141927659512,-2.005226892489195,0.3916482246600091,1743715040713013000,5.839012939453125,0.1368432939052581,0.2722038626670837,0.3860828876495361
1743715040722977000,5.84897705078125,0.8798410530567169,-2.4265093540430067,0.4637681428447365,1743715040722977000,5.84897705078125,0.1305323988199234,0.2902025580406189,0.4052978456020355
1743715040732940000,5.85893994140625,0.9850104964714496,-2.5580688647985457,0.5352797198727727,1743715040732940000,5.85893994140625,0.1059659495949745,0.2758616805076599,0.4520592093467712
1743715040742903000,5.868903076171875,1.346793378895521,-2.411376082319021,0.5947920854188502,1743715040742903000,5.868903076171875,0.0654267817735672,0.2695214748382568,0.5349674224853516
1743715040752867000,5.8788671875,1.5954782168626784,-2.388154781207442,0.9945717402167618,1743715040752867000,5.8788671875,0.0633712038397789,0.2491445243358612,0.6802055239677429
1743715040762830000,5.888830078125,0.8099345731377601,-2.8241829764723776,1.712506221179664,1743715040762830000,5.888830078125,0.1668440699577331,0.2995043992996216,0.8208132386207581
1743715040772794000,5.898794189453125,0.0446283924080431,-4.09331385449469,1.8414130254693328,1743715040772794000,5.898794189453125,0.3672088980674743,0.2832437455654144,0.8657956719398499
1743715040782757000,5.908757080078125,0.8283413135744631,-6.204671801972389,0.7249847648005933,1743715040782757000,5.908757080078125,0.5700197815895081,0.1992796212434768,0.7497167587280273
1743715040792720100,5.91872021484375,1.2712858640991151,-8.086320245587824,-0.705524715918675,1743715040792720100,5.91872021484375,0.7089207172393799,0.1382574439048767,0.5000045895576477
1743715040802684200,5.92868408203125,0.3075986530981958,-8.703775267583131,-2.122397812408209,1743715040802684200,5.92868408203125,0.6334632635116577,0.0884509980678558,0.1758819371461868
1743715040812647200,5.938647216796875,0.0772667795538902,-8.794837348255514,-4.101154631122946,1743715040812647200,5.938647216796875,0.331140398979187,-0.0073752854950726,-0.1483552157878875
1743715040822611200,5.948611083984375,-0.1010452761568129,-6.927999520280957,-4.681376485528052,1743715040822611200,5.948611083984375,0.1602365523576736,0.0252814590930938,-0.2319909930229187
1743715040832574200,5.95857421875,-1.2188636029444635,-3.651445116508007,-2.8089105885386467,1743715040832574200,5.95857421875,0.0522499978542327,0.0551790855824947,-0.16702800989151
1743715040842537000,5.968536865234375,-0.8810732252001762,-1.057911555096507,-1.2565107581630348,1743715040842537000,5.968536865234375,-0.0035355035215616,-0.0859396904706955,-0.0506246946752071
1743715040852501200,5.978501220703125,-1.0572960535466671,1.442473767018318,-0.1000738007761538,1743715040852501200,5.978501220703125,-0.0138833690434694,-0.2242342233657837,0.0675509348511695
1743715040862464000,5.988464111328125,-1.7204454897463322,3.565192481943965,0.6986106256812811,1743715040862464000,5.988464111328125,-0.0009284222614951,-0.338009774684906,0.1297157704830169
1743715040872428000,5.998427978515625,-2.0538697812356053,5.073951615774631,0.969541051595658,1743715040872428000,5.998427978515625,0.0084373317658901,-0.4399539530277252,0.1162705570459365
1743715040882391000,6.00839111328125,-2.030765822893381,5.818681018552184,0.6977108272973448,1743715040882391000,6.00839111328125,-0.0142490733414888,-0.5225409269332886,0.0526742674410343
1743715040892355000,6.01835498046875,-1.826997838886827,5.899748359432816,0.0189183432206511,1743715040892355000,6.01835498046875,-0.0697780922055244,-0.5885074734687805,-0.024384319782257
1743715040902318000,6.028318115234375,-1.722186342064291,5.512507868212461,-0.6514237078968436,1743715040902318000,6.028318115234375,-0.1398903280496597,-0.6484634876251221,-0.0920909270644187
1743715040912281000,6.038281005859375,-1.6796856093347072,4.719684004351496,-1.152550836668536,1743715040912281000,6.038281005859375,-0.2245362699031829,-0.7262874245643616,-0.1498418152332306
1743715040922245000,6.0482451171875,-1.5866576354168354,3.523769169187545,-1.4485212304890156,1743715040922245000,6.0482451171875,-0.3022592961788177,-0.7882610559463501,-0.2071418613195419
1743715040932208000,6.0582080078125,-1.5229941415406762,2.362874794000387,-1.4354947217859326,1743715040932208000,6.0582080078125,-0.3187814056873321,-0.8117451071739197,-0.2447606176137924
1743715040942172200,6.068172119140625,-1.5141583625257014,1.2687322340935467,-1.3327253983154892,1743715040942172200,6.068172119140625,-0.2869483828544616,-0.7998122572898865,-0.2395773082971573
1743715040952135200,6.07813525390625,-1.518703750870377,0.1981470753848552,-1.1130865490254014,1743715040952135200,6.07813525390625,-0.2225283533334732,-0.7585627436637878,-0.1950814425945282
1743715040962098200,6.08809814453125,-1.4648143397726117,-0.7842232087761163,-0.8243151267983019,1743715040962098200,6.08809814453125,-0.1322570443153381,-0.693629264831543,-0.1619613021612167
1743715040972062200,6.098062255859375,-1.34375985641852,-1.5434417401552198,-0.5030305512402207,1743715040972062200,6.098062255859375,-0.0487450584769248,-0.6013268828392029,-0.1526639908552169
1743715040982025200,6.108025146484375,-1.300315705358982,-2.112518223428726,-0.2137809170421212,1743715040982025200,6.108025146484375,0.0154187474399805,-0.5025531649589539,-0.1749218851327896
1743715040991989200,6.1179892578125,-1.2725496004246175,-2.418032617598772,0.1202351297952234,1743715040991989200,6.1179892578125,0.0658261552453041,-0.404167890548706,-0.2073524892330169
1743715041001952300,6.1279521484375,-1.1631249107182025,-2.381373742765188,0.4873828637206926,1743715041001952300,6.1279521484375,0.1125467866659164,-0.2888751327991485,-0.2325944602489471
1743715041011916300,6.137916259765625,-0.8376701368033885,-1.8426099801689384,0.787387664156407,1743715041011916300,6.137916259765625,0.1469577103853225,-0.152837261557579,-0.2367764711380005
1743715041021879300,6.14787939453125,-0.4686217203557491,-1.0734481469243764,0.9241500773172824,1743715041021879300,6.14787939453125,0.142399713397026,-0.0046243593096733,-0.2032411396503448
1743715041031842300,6.15784228515625,-0.383550550661236,-0.185950441634655,1.068985468427092,1743715041031842300,6.15784228515625,0.1073640659451484,0.1520532071590423,-0.1544501334428787
1743715041041806300,6.167806396484375,-0.2235539038419723,0.583166967946291,1.1209193615429105,1743715041041806300,6.167806396484375,0.035771906375885,0.3257472217082977,-0.1064751595258712
1743715041051769300,6.177769287109375,-0.3029940088469535,1.1264724656254053,1.1785576037801802,1743715041051769300,6.177769287109375,-0.0331278927624225,0.5397697687149048,-0.0642560794949531
1743715041061733000,6.187733154296875,-0.5668379105664789,1.4307628709584477,1.3263634620681404,1743715041061733000,6.187733154296875,-0.0932386368513107,0.7498412728309631,-0.0371317788958549
1743715041071696400,6.1976962890625,-0.69984820465222,1.3579466410726309,1.1693251535978169,1743715041071696400,6.1976962890625,-0.1669589579105377,0.9151572585105896,-0.0224337950348854
1743715041081660200,6.20766015625,-0.7335621120750904,1.191138122281432,0.8528121763557195,1743715041081660200,6.20766015625,-0.2288007587194442,1.051871657371521,-0.0424671582877635
1743715041091623200,6.217623046875,-0.6626269466955215,1.181992108273506,0.6440615085657686,1743715041091623200,6.217623046875,-0.2769114077091217,1.193355679512024,-0.0867826342582702
1743715041101586200,6.227586181640625,-0.6295265680611133,1.244757484266162,0.560371600629203,1743715041101586200,6.227586181640625,-0.3083987534046173,1.332323670387268,-0.1251806169748306
1743715041111550200,6.23755029296875,-0.5772190923925489,1.3472060513496398,0.5583610279917717,1743715041111550200,6.23755029296875,-0.3288541734218597,1.460265874862671,-0.1587601900100708
1743715041121513200,6.24751318359375,-0.4373462921261787,1.4261878181278704,0.5684302943244576,1743715041121513200,6.24751318359375,-0.3383044004440307,1.5885378122329712,-0.1835568845272064
1743715041131477000,6.25747705078125,-0.3775719146430492,1.4920482375264168,0.6036582595720886,1743715041131477000,6.25747705078125,-0.3473932445049286,1.7182683944702148,-0.2044131457805633
1743715041141440300,6.267440185546875,-0.4217641075909137,1.4724381126493216,0.5743455827828496,1743715041141440300,6.267440185546875,-0.3605950772762298,1.842993259429932,-0.2158274501562118
1743715041151403300,6.2774033203125,-0.5199065019130706,1.3471803323864937,0.5458601871306076,1743715041151403300,6.2774033203125,-0.3714130520820617,1.9518752098083496,-0.2139883190393448
1743715041161367300,6.2873671875,-0.5990579261697828,1.1773135950684546,0.5522129902234301,1743715041161367300,6.2873671875,-0.3716990947723388,2.0527024269104004,-0.2008868902921676
1743715041171330300,6.297330322265625,-0.6611303514622151,0.9661486326783896,0.4803652400435879,1743715041171330300,6.297330322265625,-0.3775805234909057,2.145090103149414,-0.1760001927614212
1743715041181294000,6.307294189453125,-0.7154711595892905,0.7856511957526207,0.2901264170326292,1743715041181294000,6.307294189453125,-0.3940881490707397,2.2386765480041504,-0.1492122560739517
1743715041191257300,6.31725732421875,-0.6651578534126281,0.6629764177203178,0.2062516175158321,1743715041191257300,6.31725732421875,-0.4141772091388702,2.3360071182250977,-0.1317038238048553
